acc_x,acc_y,acc_z,gyro_x,gyro_y,gyro_z,mgm_x,mgm_y,mgm_z
-2.8275523,-7.252037,5.973533,-0.003665192,0,0.004886922,23.699999,-9.3,14.099999
-2.7485435,-7.285556,5.971139,-0.4361578,-0.05375614,-0.49235737,20.039999,-3.6,-1.02
-2.8060043,-7.225701,5.949591,0.12950343,0.2687807,0.31398472,18.359999,-0.35999998,-8.76
-2.7940333,-7.249643,5.9998693,-0.008552114,0.009773844,0.014660766,16.68,2.76,-17.46
-2.8203697,-7.264008,6.021417,-0.003665192,0.002443461,0.006108652,17.039999,2.9399998,-17.82
-2.801216,-7.2592196,6.009446,0.003665192,0,0.001221731,17.1,3.1799998,-17.699999
-2.8491,-7.1730285,5.9639564,0.002443461,-0.001221731,0.003665192,16.619999,2.7,-17.699999
-2.8514943,-7.2807674,5.971139,-0.007330383,-0.002443461,0.006108652,16.56,2.76,-17.46
-2.8299465,-7.1826053,5.9519854,-0.014660766,-0.002443461,0.007330383,16.619999,2.9399998,-18
-2.825158,-7.3047094,5.9304376,-0.017104227,-0.001221731,0.007330383,16.98,3.12,-18.24
-2.8514943,-7.2185183,5.98311,-0.009773844,-0.001221731,0.003665192,17.88,3.6599998,-18.359999
-2.8107927,-7.2831616,5.9926867,-0.006108652,-0.001221731,0.002443461,17.94,3.78,-18.06
-2.777274,-7.2807674,5.9807158,-0.007330383,-0.002443461,0.001221731,17.76,3.8999999,-17.52
-2.7820623,-7.264008,5.932832,-0.012217305,-0.001221731,0.001221731,17.76,3.8999999,-17.52
-2.7940333,-7.275979,5.920861,-0.009773844,-0.001221731,0.001221731,17.16,4.08,-17.52
-2.8419175,-7.299921,5.9783216,0,0.001221731,0.001221731,17.16,4.2599998,-17.58
-2.8083985,-7.1873937,5.995081,-0.001221731,0,-0.001221731,16.56,3.78,-17.88
-2.8874073,-7.2544312,5.9448028,-0.006108652,0.001221731,0,16.32,3.54,-17.699999
-2.8060043,-7.3166804,5.98311,-0.009773844,0.002443461,0,16.38,3.3,-17.699999
-2.825158,-7.345411,5.9998693,-0.001221731,0,-0.003665192,16.02,3.24,-18.06
-2.7581203,-7.2664022,5.9424086,0.009773844,-0.002443461,-0.007330383,16.02,3.1799998,-17.34
-2.7700913,-7.2209125,6.0166287,0.006108652,-0.002443461,-0.004886922,15.839999,3.72,-17.52
-2.767697,-7.2951326,5.9064956,0.001221731,0,-0.002443461,15.599999,3.6599998,-17.58
-2.7461493,-7.2687964,5.971139,0.002443461,-0.001221731,-0.001221731,15.719999,3.6,-16.74
-2.801216,-7.225701,5.9926867,0.006108652,0.001221731,0.001221731,15.78,3.78,-17.4
-2.8538885,-7.2448545,5.9878983,0.008552114,0,0.002443461,16.26,3.72,-17.699999
-2.837129,-7.264008,5.9424086,0.006108652,0,0.003665192,16.619999,3.8999999,-17.76
-2.7629087,-7.2304893,5.9759274,0.006108652,-0.001221731,0.006108652,16.859999,4.3199997,-18.18
-2.7700913,-7.2328835,5.961562,0.002443461,-0.002443461,0.003665192,17.4,4.68,-18.18
-2.801216,-7.240066,5.932832,-0.002443461,-0.002443461,0.003665192,17.58,4.68,-18.3
-2.7724855,-7.297527,5.920861,0.001221731,-0.002443461,0.003665192,17.52,4.56,-18.06
-2.8203697,-7.156269,5.9424086,0.007330383,-0.004886922,-0.001221731,16.98,4.08,-18
-2.7844565,-7.275979,5.995081,-0.002443461,-0.001221731,0.003665192,16.92,4.08,-17.58
-2.80361,-7.357382,5.9663506,-0.002443461,0.003665192,0.007330383,17.039999,4.3199997,-16.74
-2.815581,-7.3190746,5.9448028,0.003665192,0,0.006108652,16.8,4.14,-17.16
-2.8395233,-7.249643,6.021417,0.006108652,0.002443461,0.001221731,17.52,4.44,-17.52
-2.8538885,-7.2065473,5.947197,0,0.002443461,0.006108652,17.88,4.14,-17.279999
-2.7868507,-7.275979,5.9280434,-0.009773844,0.004886922,0.007330383,17.22,4.08,-17.82
-2.7964275,-7.3190746,5.949591,-0.002443461,0.004886922,0.004886922,17.76,4.44,-17.52
-2.8443117,-7.2328835,6.009446,0.012217305,0.002443461,0.002443461,17.4,3.84,-16.98
-2.8083985,-7.1873937,5.995081,0.021991149,0.001221731,0.003665192,16.56,3.8999999,-17.4
-2.8275523,-7.2664022,5.9639564,0.017104227,0.003665192,0.006108652,16.859999,3.72,-17.16
-2.8323407,-7.28795,5.973533,0.004886922,0.001221731,0.006108652,17.039999,3.48,-17.52
-2.7964275,-7.2065473,5.9064956,0.008552114,0,0.006108652,17.039999,3.84,-17.699999
-2.906561,-7.323863,5.932832,0.018325957,-0.001221731,0.003665192,17.58,3.84,-17.58
-2.918532,-7.204153,5.9280434,0.028099801,-0.003665192,0.003665192,17.82,3.72,-18.42
-2.8562827,-7.2209125,5.997475,0.02687807,-0.002443461,0.006108652,17.1,3.48,-18.3
-2.791639,-7.2568254,5.985504,0.02565634,-0.003665192,0.006108652,17.22,3.54,-18.18
-2.7988217,-7.261614,5.9543796,0.02687807,-0.003665192,0.006108652,17.1,3.78,-18.06
-2.8299465,-7.201759,5.9783216,0.03176499,-0.004886922,0.002443461,16.859999,3.84,-17.58
-2.7988217,-7.1945763,5.932832,0.028099801,-0.004886922,0.002443461,16.8,3.8999999,-17.34
-2.873042,-7.180211,5.9926867,0.015882496,-0.003665192,0.008552114,16.92,3.84,-17.52
-2.846706,-7.2089415,5.9543796,0.019547688,-0.003665192,0.009773844,16.38,3.48,-18
-2.741361,-7.2783732,6.05733,0.040317107,-0.006108652,0.007330383,16.32,3.54,-17.699999
-2.7964275,-7.189788,6.0357823,0.052534413,-0.006108652,0.008552114,16.68,3.9599998,-17.76
-2.8060043,-7.144298,6.054936,0.04886922,-0.002443461,0.013439035,16.92,4.02,-17.82
-2.7964275,-7.1514807,6.0118403,0.047647487,-0.001221731,0.012217305,17.34,3.78,-18.359999
-2.8658595,-7.165846,6.0166287,0.042760566,-0.002443461,0.014660766,17.46,3.8999999,-18.3
-2.8299465,-7.1490865,5.9878983,0.040317107,0.002443461,0.018325957,17.52,3.6,-18.72
-2.8203697,-7.1395097,5.98311,0.04642576,0.006108652,0.02076942,17.039999,3.6,-18.48
-2.8634653,-7.1945763,6.081272,0.058643065,0.006108652,0.02321288,17.039999,3.4199998,-17.88
-2.9161377,-7.204153,6.009446,0.05497787,0.006108652,0.02321288,17.16,3.12,-17.88
-2.89459,-7.089231,6.0285997,0.056199603,0.003665192,0.02321288,16.8,3,-17.64
-2.8562827,-7.1275387,6.1004257,0.052534413,0.003665192,0.02321288,16.74,2.76,-17.64
-2.834735,-7.2472486,6.0381765,0.05497787,0.003665192,0.02443461,17.1,3.06,-17.76
-2.8443117,-7.129933,6.0262055,0.06352998,0.002443461,0.018325957,17.279999,3.1799998,-17.94
-2.822764,-7.0820484,6.0142345,0.04520403,0.008552114,0.02076942,17.4,3.06,-17.58
-2.8323407,-7.065289,6.105214,0.05131268,0.007330383,0.02687807,17.1,2.82,-17.58
-2.8921957,-7.1347213,6.1411276,0.057421334,0.010995574,0.029321533,16.98,2.76,-17.82
-2.9257145,-7.1131735,6.1507044,0.058643065,0.006108652,0.032986723,16.5,2.6399999,-17.76
-2.8634653,-7.089231,6.1626754,0.06352998,0.007330383,0.03176499,16.08,2.8799999,-17.82
-2.8682537,-7.1107793,6.1890116,0.06719518,0.008552114,0.034208454,16.92,3.24,-17.88
-2.9161377,-7.0700774,6.1746464,0.061086524,0.008552114,0.028099801,16.38,3.1799998,-17.46
-2.7365725,-6.9767036,6.090849,0.019547688,-0.013439035,-0.05009095,16.26,3.24,-17.1
-2.815581,-7.2328835,6.1195793,0.05497787,0.007330383,0.056199603,16.619999,3.1799998,-17.4
-3.0023289,-6.969521,6.184223,0.111177474,0.034208454,0.057421334,16.02,2.76,-17.4
-2.813187,-6.9862804,6.1626754,0.10140363,-0.003665192,0.037873644,16.26,2.7,-17.52
-2.918532,-6.921637,6.2632318,0.0842994,0.015882496,0.04886922,16.38,2.46,-17.94
-2.896984,-6.993463,6.1100025,0.057421334,0.007330383,0.043982297,16.08,1.8,-18.06
-2.9400797,-7.180211,6.3111157,0.059864793,0.019547688,0.05009095,16.44,1.8,-18.48
-2.9161377,-6.873753,6.184223,0.12461651,0.017104227,0.052534413,16.199999,2.04,-18.42
-2.9951463,-6.9527617,6.363788,0.12950343,0.018325957,0.05375614,16.02,2.22,-18.3
-3.004723,-6.9168487,6.279991,0.119729586,0.017104227,0.05497787,16.08,2.3999999,-18
-2.8874073,-6.967127,6.2871737,0.11728613,0.014660766,0.056199603,16.38,2.52,-17.46
-2.966416,-6.8641763,6.244078,0.12217305,0.014660766,0.052534413,16.68,2.22,-17.76
-3.0095115,-6.8450227,6.289568,0.118507855,0.018325957,0.05497787,17.1,2.1,-17.76
-2.9712043,-6.811504,6.2967505,0.11484267,0.02076942,0.061086524,17.34,2.28,-18.18
-2.9951463,-6.8809357,6.3087215,0.111177474,0.02321288,0.07086037,17.52,2.52,-18.359999
-2.9831753,-6.9383965,6.337452,0.118507855,0.030543262,0.08552113,17.34,2.52,-17.699999
-2.906561,-6.9168487,6.325481,0.13561209,0.040317107,0.089186326,17.52,2.52,-18
-2.956839,-6.8162923,6.3685765,0.172264,0.04520403,0.10262536,17.34,2.22,-17.699999
-2.96881,-6.7444663,6.4380083,0.18081611,0.057421334,0.1160644,17.22,1.9799999,-17.46
-3.0142999,-6.540959,6.531382,0.15515977,0.061086524,0.12583824,17.4,2.1599998,-17.58
-3.004723,-6.576872,6.409278,0.112399206,0.056199603,0.15882497,17.279999,1.86,-16.92
-3.265691,-6.9000893,6.682217,0.04642576,0.064751714,0.18203785,17.64,1.86,-16.98
-3.2824504,-6.5361705,6.4858923,0.081855945,0.039095376,0.16371189,17.4,1.68,-16.92
-3.241749,-6.619968,6.447585,0.05131268,0.030543262,0.19425514,17.039999,1.02,-16.98
-3.3423057,-6.351817,6.579266,0.010995574,0.03176499,0.18203785,16.56,0.65999997,-17.279999
-3.3973722,-6.4308257,6.481104,0.012217305,0.007330383,0.21868975,15.9,0.48,-16.98
-3.3997664,-6.6534867,6.5625067,-0.002443461,0.003665192,0.24801129,15.48,0.06,-17.1
-3.3327289,-6.8665705,6.43322,-0.05009095,0.004886922,0.25167647,15.36,-0.06,-17.34
-3.2561142,-6.969521,6.4499793,-0.09285152,0.02687807,0.21991149,15.719999,0.35999998,-17.76
-3.25372,-6.715736,6.421249,-0.111177474,0.064751714,0.19547687,16.02,0.53999996,-17.82
-3.371036,-6.2129536,6.5361705,-0.09773844,0.065973446,0.21013765,16.26,0.78,-18.06
-3.3518825,-6.2632318,6.409278,-0.09040806,0.032986723,0.31764993,17.039999,1.38,-18.06
-3.1651347,-7.141904,6.2249246,-0.13683382,0.043982297,0.37384954,16.74,0.9,-17.76
-3.110068,-7.654263,6.3661823,-0.09040806,0.10262536,0.30909783,17.279999,1.14,-17.699999
-3.2082303,-7.5106106,6.5146227,0.12217305,0.16126843,0.27366763,16.92,0.65999997,-17.82
-3.0550013,-7.2448545,6.4978633,0.2883284,0.22724187,0.25411993,16.38,0.17999999,-17.46
-3.1747115,-6.691794,6.4020953,0.37384954,0.32253686,0.21135938,16.8,0.48,-17.1
-3.071761,-6.694188,6.301539,0.36896262,0.34697145,0.24190263,16.14,-0.17999999,-16.92
-3.2561142,-7.132327,6.373365,0.29077184,0.37873647,0.24923302,16.74,-0.17999999,-16.44
-2.9257145,-7.311892,6.244078,0.29443705,0.28710666,0.25778514,17.1,-0.65999997,-17.039999
-2.5570073,-7.4723034,6.007052,0.2919936,0.27977628,0.22357668,16.859999,-1.14,-17.22
-2.540248,-7.237672,5.81791,0.20769419,0.25534168,-0.05009095,17.4,-1.38,-17.52
-2.9616275,-7.0940194,6.1626754,0.02565634,0.3359759,-0.16493362,17.52,-1.26,-17.46
-3.0909145,-7.4746976,6.0980315,0.06352998,0.30543262,-0.09773844,17.82,-0.9,-16.619999
-2.693477,-7.467515,5.1666875,0.44959682,0.3286455,-0.09162979,18.06,-1.0799999,-16.32
-2.1906946,-6.5098343,3.8307228,0.9419542,0.57543504,-0.09285152,18.42,-0.9,-15.78
-1.3503298,-6.8162923,4.1539397,1.2901474,0.84299403,0.002443461,19.02,-0.96,-15.54
-1.6041151,-7.1347213,4.9536033,1.2559389,0.97249746,-0.16615535,19.38,-1.3199999,-15.24
-1.99437,-7.97748,5.0900726,1.1032226,0.96883225,-0.52412236,20.52,-1.4399999,-14.82
-2.066196,-7.955932,5.3965306,1.0140363,1.0445796,-0.675617,20.4,-1.86,-13.98
-1.5682021,-7.493851,5.650316,1.1191051,1.0897835,-0.74281216,20.46,-2.8799999,-13.32
-1.4341269,-6.789956,6.0597243,1.0140363,1.110553,-0.8894198,20.46,-3.36,-12.36
-1.1444284,-6.861782,5.7748146,0.7098254,1.0726794,-0.9993755,21,-3.24,-11.82
-0.85473,-7.9128366,5.805939,0.28588495,1.1081096,-1.0506883,21.66,-3.6,-11.34
-0.9983821,-8.724471,5.9543796,0.23701571,1.1728612,-1.2156218,22.02,-3.12,-10.679999
-0.9911995,-8.549694,6.1650696,0.6560693,1.3060299,-1.3610078,22.859999,-2.7,-10.559999
-0.80684596,-7.5680714,6.4164605,1.078788,1.3732251,-1.3939945,22.92,-2.82,-9.42
-1.400608,-7.0700774,6.3781533,1.1337659,1.3133603,-1.4672983,23.64,-1.92,-8.4
-2.2361844,-7.457938,6.0836663,0.97249746,1.1863003,-1.5882497,24.6,-1.38,-7.7999997
-2.765303,-7.5968018,5.9663506,0.8772025,1.0995574,-1.7519615,25.5,-0.65999997,-6.72
-2.755726,-7.1395097,5.9687448,0.95172805,1.0409144,-1.8008307,26.46,0.59999996,-6.3599997
-2.6527755,-6.567295,5.6670756,1.0409144,0.9651671,-1.8374827,27.06,1.3199999,-5.52
-2.8754363,-6.0118403,5.566519,0.99082345,0.8588765,-1.8912388,27.9,2.76,-4.38
-3.2513258,-5.9304376,5.463568,0.70005155,0.7257079,-1.9291124,28.199999,3.54,-4.2
-3.5170822,-5.973533,4.960786,0.26633725,0.6010914,-1.9963076,27.9,4.14,-3.24
-3.4045548,-6.2105594,4.642357,0.036651913,0.57543504,-1.9144517,28.08,5.04,-3
-2.870648,-6.208165,4.6950297,0.12583824,0.63529986,-1.7128662,27.9,5.7599998,-3.4199998
-3.064578,-7.086837,5.231331,0.13439035,0.65118235,-1.5577064,27.359999,6.8399997,-3.06
-4.256891,-8.281544,4.987122,-0.112399206,0.5546656,-1.577254,28.08,7.9199996,-3.54
-5.4659624,-9.330204,4.3646297,-0.2321288,0.54000485,-1.5833627,27.72,9.24,-3.36
-5.8681884,-9.181764,3.6607344,-0.05375614,0.64996064,-1.4062119,27.359999,10.32,-2.76
-5.1140146,-8.3868885,3.0550013,0.18448131,0.7464773,-1.1643091,26.939999,11.04,-2.58
-4.644751,-7.9224133,3.122039,0.10629055,0.82711154,-1.0824533,25.98,12.059999,-2.04
-5.255273,-7.714118,3.3159695,-0.14172074,0.84788096,-1.047023,25.38,12.78,-2.28
-6.612785,-7.7907324,3.122039,-0.19792034,0.7806858,-0.9468411,24.779999,13.62,-2.1599998
-8.149862,-9.746795,3.3518825,-0.22235495,0.6010914,-0.97005403,24.9,14.82,-1.56
-8.75799,-9.512163,1.757344,-0.312763,0.35430184,-1.3353515,24.42,15.36,-1.56
-8.463503,-7.5800424,1.2808979,-0.2761111,0.39584067,-1.59558,23.76,15.66,-1.26
-11.494562,-10.9343195,6.6630635,0.8173377,1.6664404,0.91507614,22.92,15.78,-0.96
0.7206547,-5.374983,6.83784,-0.06719518,-1.1850786,-2.348166,22.02,16.02,-0.71999997
-13.512875,-4.6902413,0.074220255,-0.9627236,-0.6389651,-4.97733,21.42,16.38,-0.65999997
-18.420988,3.928885,-2.7341783,-1.0751228,1.0836749,-1.6859881,20.46,16.68,-0.65999997
-0.7086837,5.48751,8.422802,-3.689626,1.1178834,-1.210735,19.74,17.22,-0.71999997
-7.675811,-23.781605,14.544775,-5.3108625,-0.204029,0.02443461,19.32,17.88,0.17999999
-6.8043213,-12.658144,7.797915,-1.7336355,-1.0763446,0.2125811,18.6,18.3,1.3199999
-7.809886,-15.713146,3.2561142,-0.50823987,-1.1081096,-1.7299703,18.66,18.48,1.62
-3.5338416,-6.3901243,4.4077253,-0.8344419,-0.81000733,-2.5851817,18.359999,18.9,1.86
1.9776106,-7.117962,3.5984852,-1.6615535,-0.36774087,-3.5821137,17.58,19.199999,1.56
2.5474305,-11.717223,1.7956513,-1.9315559,-0.09040806,-3.1972687,16.92,20.039999,1.4399999
-0.48602295,-13.127408,1.757344,-1.4294246,-0.034208454,-2.2247713,16.44,21.72,1.9799999
-0.1604115,-9.785102,2.6240451,-0.93462384,-0.10995574,-1.9877555,15.66,22.98,2.1599998
2.0518308,-8.394072,1.982399,-1.0885619,-0.3286455,-2.0720549,15,24,2.22
3.5913026,-8.836999,0.90261406,-1.1679744,-0.4251622,-1.8924606,14.88,24.72,2.34
3.2872388,-10.771513,0.521936,-0.7648033,-0.2321288,-1.2999213,13.98,25.26,2.6399999
2.837129,-9.9550905,1.3551182,-0.16249016,-0.12461651,-0.7452556,13.259999,25.32,2.9399998
2.9616275,-8.259995,1.8435353,0.11484267,-0.17715092,-0.5119051,12.719999,25.619999,3.06
3.323152,-8.288726,2.1332338,0.12217305,-0.2321288,-0.47525316,12.12,26.039999,3
3.2752678,-9.19134,1.4389153,0.013439035,-0.1966986,-0.37140608,12.179999,26.279999,3.06
3.181894,-9.346964,1.6424223,0.18448131,-0.18936823,-0.26511553,11.639999,26.34,3.24
3.0142999,-9.746795,1.8339585,0.22479841,-0.16982053,-0.21746802,11.639999,26.64,3.48
2.8395233,-9.354146,2.15957,0.18448131,-0.19914207,-0.3115413,11.34,26.76,3.6
2.8299465,-8.9279785,1.5490485,0.09285152,-0.2724459,-0.54733527,10.5,26.519999,3.84
2.89459,-8.655039,1.4796166,0.2125811,-0.3811799,-0.70249504,10.8,26.82,3.84
3.6128504,-8.858546,2.2337902,0.06352998,-0.32742378,-0.70249504,10.0199995,26.939999,3.72
3.5170822,-9.002198,1.6232687,-0.10995574,-0.21135938,-0.6059783,9.3,26.699999,3.1799998
3.4380736,-8.698134,1.4460979,-0.07941248,-0.15149458,-0.5681047,9.12,26.82,2.82
3.074155,-8.513782,1.7190368,-0.087964594,-0.057421334,-0.49357912,9.059999,27.18,2.8799999
4.0174704,-9.01417,1.8124107,-0.29932398,-0.047647487,-0.48258355,9.12,27.24,2.6399999
5.221754,-9.356541,1.553837,-0.3567453,0.20280726,-0.15027285,9.3,27.539999,3
4.6016555,-8.532935,1.541866,-0.2919936,0.3213151,-0.040317107,9.179999,27.96,3.12
4.5681367,-8.549694,1.2306197,-0.312763,0.31398472,0.10751228,8.7,28.26,3.6
2.980781,-8.468291,1.5442601,-0.25411993,0.32375857,0.25534168,9.24,28.38,3.78
3.6296098,-9.095572,0.9935937,-0.4801401,0.19792034,0.1282817,9.36,28.5,4.5
2.906561,-9.600749,2.123657,-0.50823987,0.37140608,0.061086524,10.2,28.5,4.7999997
4.1156325,-7.0461354,1.6208745,-0.593761,0.1441642,-0.18081611,9.66,27.9,4.14
4.271256,-9.339781,1.8124107,-0.593761,0.042760566,-0.12950343,9.48,27.72,4.5
4.2544966,-8.935161,1.7429788,-0.79534656,-0.057421334,-0.16249016,8.76,27.539999,4.56
4.039018,-8.504205,1.2330139,-1.1252137,-0.0842994,-0.10995574,8.099999,27.42,5.2799997
3.6727054,-8.212111,0.4213795,-1.4208726,-0.056199603,0.032986723,8.099999,27.779999,6.42
3.775656,-7.8793178,-0.62009823,-1.4159856,-0.018325957,0.22968534,7.9199996,28.08,6.8999996
3.6487634,-9.655815,-0.20111294,-0.9578367,0.04520403,0.45814893,7.7999997,27.9,7.68
3.560178,-9.277532,0.050278235,-0.59498274,0.04153884,0.50579643,8.099999,27.84,7.74
3.7493198,-9.991004,0.093373865,-0.6621779,0.02443461,0.41416663,8.46,27.599998,8.22
3.7924154,-10.235212,-0.30166942,-0.71959925,-0.02321288,0.3213151,8.82,27.24,8.5199995
3.3518825,-9.746795,-0.60812724,-0.6169739,-0.017104227,0.17470746,9.12,27.18,8.28
3.1148565,-9.232041,-0.81402856,-0.41905355,-0.008552114,-0.021991149,8.82,26.88,8.88
3.3901896,-9.150639,-0.33279404,-0.1600467,0.018325957,-0.12095132,9.059999,26.82,8.76
3.7708676,-9.176975,-0.5793968,-0.08674286,-0.047647487,-0.18325958,9,26.939999,9.059999
3.940856,-9.433155,-0.5602432,-0.14905111,-0.04642576,-0.1001819,9.3,27.24,9.36
3.8642416,-9.296685,-0.6655881,-0.096516706,-0.015882496,0.008552114,9.599999,27.539999,8.639999
3.6774938,-9.227253,-0.6631939,-0.021991149,-0.010995574,0.05375614,9.719999,27.779999,8.4
3.5290532,-9.198523,-0.59376204,0.05009095,-0.030543262,0.07819075,9.179999,27.3,8.22
3.4763808,-9.066842,-0.5482722,0.0842994,-0.028099801,0.09162979,9.24,27.24,8.099999
3.41892,-9.100361,-0.4381389,0.081855945,-0.02076942,0.087964594,8.46,26.58,8.099999
3.4165258,-9.107543,-0.44771573,0.032986723,-0.018325957,0.058643065,8.4,26.519999,8.76
3.4356794,-9.181764,-0.4261679,-0.008552114,-0.009773844,0.014660766,8.4,26.46,8.58
3.5338416,-9.169792,-0.5363012,-0.043982297,-0.017104227,-0.028099801,8.04,26.099998,8.4
3.5936968,-9.23683,-0.61052144,-0.087964594,-0.021991149,-0.06841691,8.5199995,26.46,8.76
3.620033,-9.179369,-0.6392518,-0.073303826,-0.018325957,-0.06841691,8.4,26.46,8.099999
3.6008794,-9.057265,-0.51235914,-0.052534413,-0.015882496,-0.040317107,8.4,26.699999,8.04
3.5362358,-9.141062,-0.5602432,-0.058643065,-0.012217305,-0.02565634,8.46,26.88,8.04
3.6032736,-9.088389,-0.62728083,-0.06719518,-0.010995574,-0.02565634,8.82,27.18,7.9199996
3.7421372,-9.234436,-0.6727707,-0.064751714,-0.017104227,-0.058643065,8.76,27.3,8.04
3.6176388,-9.153033,-0.58897364,-0.042760566,-0.02687807,-0.029321533,8.82,27.72,8.04
3.58412,-9.054871,-0.6727707,-0.032986723,-0.02687807,-0.013439035,9.059999,27.779999,8.58
3.572149,-9.193734,-0.58418524,-0.043982297,-0.02687807,-0.029321533,8.94,27.72,8.76
3.6248214,-9.030929,-0.61052144,-0.056199603,-0.028099801,-0.04520403,9.42,27.84,8.76
3.7014358,-9.131485,-0.6751649,-0.07086037,-0.028099801,-0.05131268,10.139999,27.72,8.639999
3.655946,-9.153033,-0.7062895,-0.07574729,-0.02076942,-0.039095376,10.139999,27.72,8.46
3.6583402,-9.172187,-0.6679823,-0.059864793,-0.013439035,-0.02321288,10.0199995,27.48,8.4
3.5194764,-9.136273,-0.7398083,-0.040317107,-0.007330383,-0.028099801,9.3,27.18,8.88
3.6367924,-9.13388,-0.7565677,-0.003665192,-0.001221731,-0.035430185,8.22,26.939999,9.3
3.679888,-9.196129,-0.6536171,0.010995574,-0.003665192,-0.034208454,8.639999,27.42,9
3.6463692,-9.074024,-0.6631939,0.012217305,-0.006108652,-0.03176499,8.94,27.72,8.88
3.739743,-9.081207,-0.6703765,-0.019547688,-0.008552114,-0.034208454,9.54,28.08,9
3.7373488,-8.992621,-0.6775591,-0.02565634,-0.007330383,-0.008552114,9.9,28.08,8.94
3.655946,-9.028535,-0.6991069,-0.037873644,-0.007330383,0.021991149,9,27.66,9.179999
3.572149,-9.085996,-0.6799533,-0.05375614,-0.010995574,0.039095376,9.059999,27.66,9.599999
3.5793316,-9.0716305,-0.6512229,-0.06963864,-0.012217305,0.035430185,8.28,27.24,9.48
3.608062,-9.059659,-0.6703765,-0.103847094,-0.013439035,0.028099801,8.7,27.779999,9.719999
3.6463692,-9.129091,-0.770933,-0.13194689,-0.010995574,0.02076942,8.94,27.72,9.54
3.5625722,-9.069236,-0.7565677,-0.1441642,-0.014660766,0.010995574,8.16,26.939999,9.36
3.6343982,-9.045294,-0.80205756,-0.1441642,-0.018325957,0.008552114,8.4,26.82,9.179999
3.596091,-9.052477,-0.8762778,-0.1441642,-0.018325957,0.004886922,8.22,26.519999,8.82
3.6296098,-9.0476885,-0.90979666,-0.13316862,-0.018325957,0,8.88,26.699999,8.88
3.6391866,-9.138668,-0.91697925,-0.10140363,-0.019547688,0.003665192,9.66,27.359999,8.82
3.6607344,-9.105149,-1.0103531,-0.06963864,-0.018325957,0.009773844,9.96,27.42,9
3.5434184,-9.13388,-0.9600749,-0.04886922,-0.012217305,0.010995574,9.9,27.24,8.88
3.6463692,-9.129091,-1.0366893,-0.02565634,-0.007330383,0.007330383,9.179999,26.58,8.7
3.608062,-9.167398,-0.9696517,-0.001221731,0,0.008552114,8.88,26.279999,8.5199995
3.5984852,-9.083601,-0.90979666,0.019547688,0.004886922,0.013439035,8.94,26.279999,8.34
3.550601,-9.097966,-0.9528923,0.02687807,0.006108652,0.014660766,9,26.46,8.639999
3.596091,-9.143456,-0.8858546,0.02687807,0.004886922,0.003665192,9.12,27.06,9.599999
3.5338416,-9.100361,-0.9504981,0.035430185,0.006108652,0.006108652,9.54,27.359999,9.66
3.6487634,-9.16261,-0.94092125,0.037873644,0.006108652,0.009773844,9.12,27.18,9.9
3.5769374,-9.141062,-0.89543146,0.037873644,0.006108652,0.009773844,9.12,27,9.84
3.526659,-9.13388,-0.8355764,0.035430185,0.004886922,0.006108652,9.12,26.46,9.36
3.6152446,-9.126697,-0.8834604,0.02321288,0.004886922,-0.001221731,9.12,26.46,9.66
3.5625722,-9.009381,-0.90979666,0.013439035,0.001221731,-0.003665192,9.84,27.119999,9.48
3.6008794,-9.112331,-0.8714894,0.003665192,0.001221731,-0.009773844,9.719999,26.88,9.54
3.6152446,-9.045294,-0.866701,0,0,-0.012217305,10.139999,27.539999,9.78
3.6176388,-9.102755,-0.8499416,0.006108652,0.001221731,-0.008552114,9.599999,27.48,9.42
3.6511576,-9.126697,-0.90021986,0.017104227,0.001221731,-0.007330383,9.54,27.42,9.599999
3.620033,-9.085996,-0.92655605,0.018325957,0.001221731,-0.008552114,9.48,27.84,9.599999
3.5769374,-9.124303,-0.9504981,0.019547688,0.002443461,-0.010995574,9.24,27.599998,9.179999
3.6583402,-9.0429,-0.8643068,0.02076942,0.001221731,-0.009773844,9.179999,27.48,9
3.6367924,-9.088389,-0.8595184,0.015882496,0,-0.010995574,9,27.119999,8.76
3.6727054,-9.121908,-0.8355764,0.013439035,0.002443461,-0.008552114,9.179999,27.24,8.7
3.560178,-9.126697,-0.8379706,0.010995574,0,-0.006108652,8.94,27.119999,9.059999
3.6607344,-9.057265,-0.8499416,0.002443461,0,-0.008552114,9.059999,27.06,9.179999
3.6056678,-9.112331,-0.85473,-0.004886922,-0.001221731,-0.008552114,8.76,26.82,9.48
3.6152446,-9.109938,-0.8595184,-0.019547688,-0.002443461,-0.006108652,8.76,26.82,9.54
3.6750996,-9.0716305,-0.8714894,-0.040317107,-0.004886922,-0.006108652,8.639999,26.58,9.179999
3.6296098,-9.0716305,-0.89543146,-0.05009095,-0.008552114,-0.007330383,8.46,26.939999,9.42
3.6296098,-9.0429,-0.93373865,-0.047647487,-0.010995574,-0.001221731,9,27.48,9.48
3.5577838,-9.097966,-0.92416185,-0.052534413,-0.009773844,0.004886922,8.46,26.939999,9.48
3.6703112,-9.102755,-0.92655605,-0.056199603,-0.010995574,-0.002443461,8.5199995,27.06,9.48
3.5817258,-9.090784,-0.92416185,-0.036651913,-0.013439035,-0.004886922,8.46,26.58,9.36
3.6248214,-9.107543,-0.8882488,-0.02443461,-0.012217305,-0.002443461,8.28,26.34,9.42
3.6415808,-9.0716305,-0.91937345,-0.02076942,-0.010995574,0.001221731,8.4,27,9.719999
3.572149,-9.059659,-1.0079589,-0.015882496,-0.008552114,0.006108652,8.76,27.06,9.42
3.632004,-9.090784,-0.9840169,-0.009773844,-0.004886922,0.003665192,9.059999,27.06,9.24
3.632004,-9.064447,-0.9600749,-0.010995574,-0.003665192,-0.001221731,9.059999,27.06,9.24
3.7253778,-9.124303,-0.9959879,-0.010995574,-0.002443461,0,9.36,26.82,8.76
3.6152446,-9.126697,-0.91219085,-0.002443461,-0.001221731,0.003665192,9.3,26.76,9.36
3.5865142,-9.081207,-0.9624691,-0.001221731,0,0.002443461,9.36,26.939999,9.48
3.6104562,-9.040505,-0.9744401,0.003665192,0.001221731,-0.003665192,9,26.939999,9.3
3.5913026,-9.083601,-0.9576807,0.008552114,0.003665192,-0.001221731,8.88,26.88,9.599999
3.6272156,-9.069236,-0.94810385,0.003665192,0.003665192,-0.001221731,8.94,27.119999,9.3
3.6511576,-9.109938,-0.9935937,-0.001221731,0.002443461,-0.006108652,8.7,27,9.599999
3.6535518,-9.136273,-0.92895025,-0.003665192,0.003665192,-0.008552114,8.58,26.939999,9.719999
3.6248214,-9.150639,-0.9504981,-0.007330383,0.001221731,-0.008552114,8.46,26.82,9.719999
3.6152446,-9.052477,-0.94570965,-0.012217305,-0.001221731,-0.007330383,8.04,26.82,10.139999
3.6248214,-9.040505,-0.9935937,-0.018325957,-0.002443461,-0.006108652,8.099999,26.699999,10.26
3.6272156,-9.129091,-0.9504981,-0.015882496,-0.004886922,-0.003665192,8.04,26.519999,10.2
3.5913026,-9.109938,-0.9888053,-0.012217305,-0.002443461,0.001221731,8.16,26.519999,9.96
3.6128504,-9.078813,-0.9552865,-0.007330383,-0.002443461,0.003665192,8.22,26.46,9.719999
3.6008794,-9.126697,-0.9744401,-0.008552114,-0.002443461,0.001221731,8.82,26.64,9.54
3.6272156,-9.0476885,-0.93373865,-0.012217305,-0.003665192,-0.003665192,9.24,26.939999,9.059999
3.6703112,-9.109938,-1.0079589,-0.008552114,-0.002443461,-0.003665192,9.059999,27,9.42
3.643975,-9.129091,-1.0055647,-0.002443461,0,0.002443461,9.059999,26.82,9.42
3.608062,-9.126697,-0.9768343,-0.002443461,-0.002443461,0.003665192,8.16,26.64,8.88
3.6703112,-9.074024,-0.9983821,-0.004886922,-0.001221731,0.002443461,7.8599997,26.58,9.059999
3.6343982,-9.081207,-0.94570965,-0.003665192,-0.001221731,-0.002443461,8.22,26.64,9
3.6415808,-9.131485,-0.9576807,-0.006108652,0.001221731,-0.001221731,8.04,26.88,9.179999
3.596091,-9.112331,-0.9935937,-0.008552114,0.001221731,-0.001221731,8.639999,27.06,9.66
3.643975,-9.114726,-0.9528923,-0.002443461,-0.001221731,-0.004886922,8.34,26.939999,9.48
3.6846764,-9.083601,-0.90740246,-0.003665192,-0.001221731,-0.009773844,7.9199996,26.82,9.78
3.620033,-9.016563,-0.94331545,-0.002443461,0.002443461,-0.002443461,8.04,26.76,9.66
3.6104562,-9.050082,-0.9672575,-0.003665192,0,-0.002443461,7.7999997,26.82,9.24
3.643975,-9.062054,-0.9840169,-0.002443461,-0.002443461,-0.006108652,8.28,27.06,8.94
3.6272156,-9.105149,-0.94570965,-0.004886922,-0.003665192,-0.008552114,8.76,27,8.4
3.6248214,-9.028535,-1.0271125,-0.012217305,-0.003665192,-0.002443461,9.059999,26.88,8.22
3.5817258,-9.109938,-1.0055647,-0.013439035,-0.002443461,0.002443461,9.24,26.939999,8.76
3.632004,-9.069236,-0.9792285,-0.010995574,-0.003665192,0.001221731,9.42,27.06,9.78
3.5936968,-9.074024,-0.92895025,-0.008552114,-0.002443461,0.001221731,9.3,27.18,10.139999
3.6104562,-9.078813,-0.9648633,-0.009773844,0,0.002443461,9.36,27.359999,9.84
3.6224272,-9.174581,-0.9576807,-0.010995574,-0.002443461,0.002443461,9.24,26.939999,9.78
3.6846764,-9.018958,-0.9959879,-0.009773844,-0.002443461,0.001221731,8.82,27,9.54
3.6463692,-9.045294,-1.0031705,-0.010995574,-0.002443461,-0.001221731,9.059999,27.18,9.24
3.5889084,-9.0716305,-1.0582372,-0.010995574,-0.001221731,-0.001221731,9,27.24,9.599999
3.6272156,-9.052477,-0.93134445,-0.010995574,-0.002443461,0,9.12,27.48,9.24
3.6032736,-9.155427,-1.0103531,-0.009773844,-0.001221731,0,9,27.18,8.88
3.6415808,-9.085996,-1.0031705,-0.002443461,0,-0.001221731,8.88,26.88,8.88
3.6942532,-9.057265,-0.9911995,-0.002443461,0,0,8.16,26.699999,9.059999
3.6248214,-9.11712,-0.9911995,-0.004886922,-0.001221731,-0.003665192,7.62,26.76,9.179999
3.6128504,-9.100361,-1.0031705,-0.007330383,0,-0.006108652,7.74,27,9.3
3.5793316,-9.105149,-0.9959879,-0.004886922,-0.001221731,-0.002443461,7.7999997,27.18,9.24
3.5769374,-9.150639,-1.0151415,-0.012217305,-0.002443461,-0.001221731,8.34,27.3,9.059999
3.6224272,-9.078813,-1.0031705,-0.014660766,-0.002443461,-0.001221731,9.24,27.72,8.94
3.6703112,-9.045294,-1.0271125,-0.012217305,-0.001221731,0.003665192,9.42,27.48,9.179999
3.596091,-9.0716305,-1.0007763,-0.007330383,0,0.006108652,9.66,27.599998,9.3
3.667917,-9.155427,-0.9696517,-0.004886922,-0.001221731,0.001221731,9.12,27.119999,9.42
3.6391866,-9.078813,-1.0534488,-0.003665192,-0.001221731,-0.003665192,8.639999,26.939999,9.719999
3.608062,-9.028535,-0.9840169,0,0,-0.004886922,8.7,27,9.84
3.655946,-9.074024,-1.0534488,0.002443461,0.001221731,-0.002443461,7.98,27,10.139999
3.5649664,-9.076419,-1.0390835,0.006108652,0.001221731,-0.002443461,8.94,27.779999,9.84
3.5984852,-9.030929,-0.9552865,0.003665192,0,-0.002443461,8.58,27.599998,9.84
3.6655228,-9.069236,-0.9792285,0.002443461,0,0.001221731,8.94,27.84,9.48
3.632004,-9.143456,-1.0414777,0.003665192,0.001221731,0.002443461,9.24,27.96,9.12
3.6391866,-9.102755,-1.043872,0.001221731,0,0.001221731,9.24,27.599998,9.42
3.632004,-9.059659,-0.9576807,-0.001221731,0,-0.002443461,9.36,27.48,9.12
3.6511576,-9.083601,-0.9983821,-0.004886922,0.001221731,-0.002443461,8.82,26.939999,9.3
3.6822822,-9.076419,-0.9959879,0.001221731,0,-0.001221731,9.36,26.88,9.179999
3.5697548,-9.0237465,-1.0079589,-0.001221731,-0.002443461,-0.003665192,8.82,26.939999,9.12
3.6583402,-9.109938,-1.0390835,-0.010995574,-0.003665192,-0.002443461,8.82,26.88,9.12
3.6296098,-9.097966,-1.0007763,-0.017104227,-0.003665192,0.002443461,9.12,27.359999,9
3.6248214,-9.102755,-1.0127473,-0.007330383,-0.004886922,0.004886922,9,27.359999,9.059999
3.550601,-9.030929,-1.0390835,-0.008552114,-0.003665192,0.006108652,9.24,27.48,9.059999
3.6128504,-9.088389,-0.9744401,-0.009773844,-0.002443461,0.003665192,9.54,27.66,9.66
3.6870706,-9.078813,-1.0414777,-0.006108652,-0.001221731,0.001221731,9.719999,27.96,9.54
3.6152446,-9.093178,-1.0414777,-0.006108652,-0.001221731,-0.001221731,9.48,27.66,9.66
3.7134068,-9.052477,-1.0319009,-0.002443461,0.001221731,0,9.66,27.599998,9.84
3.6343982,-9.102755,-0.9959879,0.002443461,0,0.001221731,9.719999,27.539999,9.24
3.560178,-9.121908,-1.0390835,0.003665192,0.001221731,0.001221731,9.42,27,9.179999
3.5649664,-9.045294,-1.043872,0.002443461,0.001221731,-0.001221731,9.48,27.24,9.48
3.6535518,-9.069236,-1.0199299,0.006108652,0.002443461,-0.002443461,9.3,27.3,9.599999
3.5553896,-9.0237465,-1.0342951,0.004886922,0.001221731,0,9.3,27.48,9.78
3.6343982,-9.040505,-1.0342951,0.003665192,0.001221731,-0.001221731,9.179999,27.779999,10.139999
3.6391866,-9.102755,-1.0007763,0.004886922,0,0,8.94,27.66,10.0199995
3.6511576,-9.057265,-1.0223241,0,-0.001221731,0.001221731,8.76,27.539999,10.2
3.6343982,-9.095572,-1.0199299,-0.001221731,0,0.001221731,8.4,27.18,9.719999
3.5649664,-9.090784,-1.0007763,0,0.001221731,0.001221731,8.639999,27.24,9.42
3.5936968,-9.062054,-1.0486604,0.001221731,0.001221731,0.002443461,8.5199995,26.939999,9.3
3.5745432,-9.064447,-0.9816227,0.001221731,0.001221731,0.001221731,8.82,26.76,8.82
3.655946,-9.102755,-1.0055647,0,0,0,9.179999,27.06,9.24
3.6272156,-9.097966,-1.0175357,-0.001221731,-0.001221731,0,9.059999,26.699999,9.179999
3.632004,-9.148245,-1.0342951,-0.001221731,-0.001221731,0,9,27.359999,9.36
3.6128504,-9.165004,-1.0319009,0.001221731,-0.002443461,-0.001221731,8.94,27.18,9.66
3.667917,-9.0716305,-1.0342951,0.001221731,-0.001221731,0,8.88,27.18,9.36
3.5649664,-9.095572,-1.0055647,-0.003665192,-0.001221731,0.001221731,8.94,27.42,9.599999
3.655946,-9.097966,-1.0486604,-0.004886922,-0.001221731,-0.002443461,9.36,27.48,9.719999
3.6272156,-9.131485,-1.0271125,-0.002443461,-0.001221731,-0.003665192,9.54,27.72,9.179999
3.5697548,-9.074024,-1.0223241,0.001221731,-0.001221731,-0.002443461,9.36,27.84,9.719999
3.5745432,-9.040505,-1.0127473,0.001221731,0,0,9.059999,27.599998,9.84
3.6008794,-9.107543,-1.0247183,-0.004886922,0,-0.002443461,9,27.359999,9.66
3.6535518,-9.155427,-1.0175357,-0.001221731,-0.001221731,-0.002443461,8.46,27.119999,10.26
3.6367924,-9.038112,-1.0342951,0,-0.003665192,-0.002443461,9.179999,27.48,9.78
3.6415808,-8.992621,-0.9888053,-0.010995574,-0.003665192,0.002443461,9,27.48,9.599999
3.6152446,-9.107543,-1.0414777,-0.014660766,-0.004886922,0.003665192,8.94,27.66,9.36
3.6655228,-9.066842,-1.0462662,-0.007330383,-0.002443461,0.006108652,9.3,28.08,9
3.6487634,-9.102755,-1.0486604,-0.003665192,0,0.006108652,8.88,27.84,9.059999
3.6056678,-9.088389,-0.9935937,-0.004886922,-0.001221731,0.002443461,9.96,28.08,8.639999
3.572149,-9.074024,-0.9959879,-0.006108652,-0.002443461,-0.004886922,9.599999,27.9,9.12
3.5889084,-9.105149,-1.0342951,-0.008552114,-0.002443461,-0.007330383,9.3,27.66,8.94
3.6511576,-9.0237465,-1.0845734,-0.007330383,-0.002443461,-0.006108652,9.059999,27.3,9
3.58412,-9.088389,-1.0390835,-0.004886922,-0.001221731,-0.002443461,8.76,27.18,9.599999
3.5673606,-9.107543,-1.0342951,-0.003665192,-0.001221731,-0.001221731,8.88,26.88,9
3.6104562,-9.088389,-1.0151415,-0.003665192,-0.001221731,-0.001221731,9.3,26.88,9.599999
3.6463692,-9.066842,-0.9648633,-0.002443461,0,-0.001221731,9.3,27.119999,9.9
3.6487634,-9.0476885,-1.079785,-0.003665192,0,-0.001221731,8.639999,26.76,10.2
3.5745432,-9.138668,-1.0223241,0.001221731,-0.001221731,-0.001221731,9.24,27,10.08
3.667917,-9.057265,-1.0151415,0.001221731,0,-0.001221731,8.34,26.58,9.48
3.6224272,-8.985439,-1.0151415,-0.006108652,0,-0.001221731,8.22,26.039999,9.36
3.6032736,-9.157822,-1.0319009,-0.003665192,-0.001221731,0,8.28,26.22,8.94
3.643975,-9.097966,-1.0342951,-0.007330383,0,0.001221731,7.98,26.099998,9.24
3.5769374,-9.100361,-1.0630256,-0.006108652,-0.001221731,0,8.82,26.34,9.48
3.6343982,-9.160215,-1.0151415,-0.004886922,-0.001221731,0,9.179999,26.76,9.42
3.5913026,-9.11712,-1.0510546,-0.004886922,-0.002443461,0,9.12,26.699999,9.3
3.6056678,-9.093178,-1.0534488,-0.004886922,-0.003665192,-0.002443461,8.88,26.699999,9.36
3.6367924,-9.088389,-1.0726024,-0.006108652,-0.002443461,-0.002443461,8.46,26.939999,9
3.6583402,-9.143456,-1.0749966,-0.009773844,-0.003665192,-0.001221731,7.98,26.64,8.82
3.6032736,-9.11712,-1.0702082,-0.004886922,-0.003665192,-0.002443461,7.62,26.519999,9.12
3.6511576,-9.064447,-1.0654198,-0.002443461,-0.002443461,0.001221731,7.68,26.519999,9.12
3.5889084,-9.057265,-1.0773908,-0.001221731,-0.001221731,0,8.16,26.34,9
3.6655228,-9.066842,-1.0462662,-0.001221731,0,-0.001221731,8.5199995,26.699999,9.179999
3.5984852,-9.0716305,-1.0462662,0,0,-0.003665192,8.94,27.24,9.179999
3.643975,-9.0716305,-1.0845734,0.003665192,-0.001221731,-0.001221731,8.58,27,9.36
3.5673606,-9.126697,-1.0606314,-0.002443461,0.001221731,0,8.099999,27.06,9.48
3.6415808,-9.102755,-1.055843,0,0,-0.001221731,8.22,26.88,9.54
3.53863,-9.011775,-1.1085154,0.001221731,-0.002443461,-0.002443461,8.4,26.58,9.78
3.6894648,-9.083601,-1.0534488,-0.003665192,-0.002443461,0.001221731,9.059999,26.58,9.179999
3.5984852,-9.119514,-1.0319009,-0.008552114,-0.003665192,0.006108652,9.42,26.699999,9.54
3.58412,-9.0716305,-1.0247183,-0.006108652,-0.003665192,0.003665192,9.12,26.88,9.42
3.5769374,-9.088389,-1.067814,-0.006108652,-0.003665192,0.002443461,8.94,27.06,8.639999
3.6631286,-9.038112,-1.1109096,-0.007330383,-0.002443461,0.001221731,8.88,27.48,8.88
3.6176388,-9.105149,-1.0319009,-0.004886922,-0.001221731,0,8.94,27.359999,9.059999
3.6056678,-9.090784,-1.067814,-0.003665192,-0.001221731,0,9.12,27.06,9.36
3.6296098,-9.095572,-1.0414777,-0.006108652,-0.001221731,-0.002443461,9.179999,27.06,10.139999
3.6583402,-9.0476885,-1.0773908,-0.004886922,0,-0.002443461,9.599999,26.88,10.0199995
3.6487634,-9.028535,-1.0773908,-0.002443461,0,0,9.48,27.06,9.96
3.6774938,-9.064447,-1.0726024,-0.004886922,-0.001221731,-0.001221731,9.42,27.42,10.26
3.5649664,-9.100361,-1.091756,0,-0.001221731,0,9.9,27.599998,9.84
3.6415808,-9.059659,-1.0271125,0.002443461,0,0,9.36,27.48,10.08
3.58412,-9.076419,-1.0510546,-0.002443461,-0.001221731,0,9.42,27.42,9.84
3.6152446,-9.090784,-1.0773908,0,0,-0.002443461,7.5,26.76,9.84
3.667917,-9.131485,-1.0749966,-0.001221731,-0.001221731,0.001221731,7.3799996,26.519999,10.32
3.6511576,-9.095572,-1.103727,-0.002443461,-0.001221731,0.002443461,7.98,26.58,10.139999
3.6415808,-9.090784,-1.0127473,-0.004886922,-0.002443461,0,8.099999,26.22,10.139999
3.5913026,-9.181764,-1.1013328,-0.006108652,-0.002443461,-0.002443461,8.58,26.34,10.26
2.89459,-8.655039,1.4796166,0.2125811,-0.3811799,-0.70249504,9.059999,26.82,10.26
3.6272156,-9.052477,-1.0654198,0,-0.001221731,0.002443461,9.12,27,9.78
3.6008794,-9.083601,-1.055843,0,0,0,8.94,27.24,10.26
3.572149,-9.050082,-1.1444284,-0.001221731,0,-0.003665192,8.5199995,27.119999,9.78
3.643975,-9.066842,-1.0534488,-0.002443461,-0.001221731,-0.003665192,8.76,27.539999,10.44
3.6176388,-9.136273,-1.0749966,-0.001221731,0,-0.003665192,8.34,27.539999,10.8
3.6296098,-9.064447,-1.0654198,0,0,0,8.099999,27.06,9.48
3.6535518,-9.033323,-1.0749966,-0.002443461,0,-0.001221731,8.22,26.88,9.54
3.6655228,-9.076419,-1.1085154,0.003665192,-0.001221731,0,8.4,26.58,9.78
3.6535518,-9.109938,-1.1420342,0.002443461,0,0,9.059999,26.58,9.179999
3.667917,-8.9998045,-1.0582372,0.002443461,0,0,9.42,26.699999,9.54
3.6128504,-9.0716305,-1.0582372,-0.002443461,0.002443461,0,9.12,26.88,9.42
3.5817258,-9.121908,-1.103727,0.001221731,0.001221731,-0.002443461,8.94,27.06,8.639999
3.6128504,-9.02614,-1.0821792,-0.001221731,-0.001221731,-0.002443461,8.88,27.48,8.88
3.655946,-9.016563,-1.13964,0,-0.003665192,-0.001221731,8.94,27.359999,9.059999
3.7014358,-9.114726,-1.2306197,0.007330383,0.05131268,-0.23579398,9.12,27.06,9.36
3.7014358,-9.114726,-1.2306197,0.007330383,0.05131268,-0.23579398,9.179999,27.06,10.139999
3.8019924,-9.210494,-1.1540052,0.019547688,0.0720821,-0.2773328,9.599999,26.88,10.0199995
3.8953662,-8.968679,-1.0893618,0.018325957,0.09162979,-0.3005457,9.48,27.06,9.96
3.833117,-8.956709,-1.0749966,-0.007330383,0.081855945,-0.3042109,9.42,27.42,10.26
3.833117,-9.002198,-1.4101849,-0.034208454,0.0720821,-0.30909783,9.9,27.599998,9.84
