acc_x,acc_y,acc_z,gyro_x,gyro_y,gyro_z,mgm_x,mgm_y,mgm_z
-9.387665,-2.420538,1.6065093,-0.38362336,0.1441642,-0.16615535,-19.5,0.78,-22.74
-9.301474,-2.384625,1.7381904,-0.45937067,-0.10995574,-0.47891834,-9.3,11.099999,-9.599999
-9.275137,-2.4133554,1.9057846,0.018325957,0.19058995,0.2443461,-4.2,16.32,-2.76
-9.303867,-2.336741,1.9847932,-0.10140363,0.02565634,0.010995574,1.0799999,21.359999,3.78
-9.301474,-2.2529438,2.1404164,-0.10995574,0.004886922,0.008552114,1.8,21.84,3.84
-9.354146,-2.2649148,2.1404164,-0.118507855,-0.019547688,0.013439035,2.1599998,22.14,4.02
-9.354146,-2.2744915,2.1547816,-0.12217305,-0.04520403,0.021991149,2.76,22.56,4.2
-9.473856,-2.3127987,2.0470424,-0.10995574,-0.06352998,0.035430185,2.6399999,22.8,4.2599998
-9.361329,-2.3463178,2.0374656,-0.073303826,-0.07574729,0.04642576,2.52,23.16,3.9599998
-9.385271,-2.3295584,1.8890251,-0.037873644,-0.0842994,0.056199603,2.3999999,23.1,3.72
-9.414001,-2.3104045,1.7645266,-0.02565634,-0.087964594,0.062308256,1.86,22.859999,3.48
-9.437943,-2.4301147,1.6424223,-0.037873644,-0.09773844,0.065973446,1.86,22.199999,3.6
-9.354146,-2.3582888,1.532289,-0.061086524,-0.10995574,0.06963864,1.8,21.84,3.54
-9.351752,-2.3558946,1.472434,-0.08552113,-0.1160644,0.065973446,1.86,22.26,3.6599998
-9.289502,-2.3223755,1.4772224,-0.103847094,-0.11362094,0.05497787,2.1599998,22.26,3.72
-9.260772,-2.3702598,1.4508862,-0.119729586,-0.10751228,0.037873644,1.92,22.5,3.6599998
-9.239224,-2.3080103,1.4796166,-0.14538592,-0.09407325,0.021991149,1.38,22.439999,4.44
-9.16261,-2.3127987,1.4987702,-0.18203785,-0.0842994,0.013439035,1.3199999,22.439999,4.5
-9.31105,-2.3295584,1.5035586,-0.19792034,-0.062308256,0.010995574,1.4399999,22.38,4.56
-9.220071,-2.3558946,1.6328455,-0.18081611,-0.047647487,0.017104227,1.86,22.56,4.74
-9.11712,-2.3511062,1.6136919,-0.15393804,-0.04153884,0.029321533,2.28,22.859999,4.56
-9.14585,-2.2816741,1.6543933,-0.14782938,-0.028099801,0.036651913,1.9799999,22.38,4.38
-9.16261,-2.2457612,1.6879122,-0.15882497,-0.021991149,0.05375614,2.34,22.859999,4.56
-9.076419,-2.2697031,1.7357962,-0.17470746,-0.02321288,0.07086037,2.3999999,22.68,4.98
-9.088389,-2.1332338,1.7932571,-0.21624629,-0.03176499,0.0842994,2.46,22.8,5.1
-9.088389,-2.2050598,1.7621324,-0.28344148,-0.047647487,0.10873401,2.82,22.8,5.64
-9.105149,-2.2529438,1.7669208,-0.3481932,-0.0720821,0.13683382,2.3999999,22.439999,5.58
-9.325416,-2.3056161,1.7908629,-0.41172317,-0.09896017,0.16615535,2.3999999,22.439999,5.3399997
-9.507375,-2.3104045,1.8387469,-0.45448375,-0.11484267,0.18448131,2.52,22.38,5.46
-9.411607,-2.552219,1.8100165,-0.5314528,-0.15393804,0.24312437,3,22.68,5.4
-9.473856,-2.9257145,1.9656396,-0.4569272,-0.17715092,0.3286455,3.24,22.98,5.7599998
-9.739613,-2.9903579,2.3942018,-0.38606682,-0.19547687,0.36041048,3.36,22.92,6.3599997
-9.404425,-2.9017725,2.3463178,-0.32986724,-0.30665436,0.4288274,3.06,22.68,6.8399997
-9.076419,-3.2321723,2.0566192,-0.5204572,-0.40561453,0.4288274,2.58,22.26,7.14
-8.6574335,-3.7493198,1.9895816,-0.6609562,-0.4007276,0.39950588,2.76,21.84,7.5
-7.920019,-3.8355112,2.5378537,-0.54000485,-0.39461896,0.37384954,3.3,22.199999,7.5
-7.2424603,-4.1539397,2.8299465,-0.25045475,-0.42271876,0.31520647,4.02,22.439999,7.2599998
-7.7572136,-5.267244,2.6144683,0.064751714,-0.35308012,0.25411993,5.16,22.98,7.2
-8.032547,-6.1938,2.006341,0.21868975,-0.2919936,0.111177474,5.2799997,23.039999,7.5
-7.153875,-6.203377,2.0638018,0.5558874,-0.31887165,-0.08552113,4.98,22.439999,7.5
-6.244078,-5.8634,1.7310078,1.1496484,-0.3286455,-0.20891592,4.74,22.26,7.3799996
-5.9543796,-5.5138464,1.5801731,1.6310102,-0.28588495,-0.38728857,4.02,21.84,7.14
-5.947197,-5.140351,1.3670892,1.8985692,-0.22479841,-0.61941737,4.2,22.26,6.3599997
-5.662287,-4.654328,1.2545617,1.9767599,-0.13072516,-0.73792523,4.5,22.68,5.52
-5.1140146,-4.24492,1.2665327,1.8423696,-0.036651913,-0.8552113,4.92,23.16,4.68
-4.8961425,-4.0821137,1.0127473,1.6224581,0.065973446,-0.99082345,4.68,23.16,3.6599998
-4.7381253,-4.015076,0.8690952,1.4514158,0.111177474,-1.078788,4.14,22.98,3.24
-4.630386,-4.39336,0.6703765,1.6395624,0.21991149,-1.0934488,3.4199998,23.16,2.52
-4.63278,-4.7165775,0.18674773,2.1380284,0.344528,-1.0641272,2.76,23.1,1.5
-4.4580035,-4.211401,-0.21308395,2.4471262,0.44348818,-1.0567969,2.28,23.4,0.71999997
-4.498705,-3.9480386,-0.7230489,2.4178047,0.5290093,-1.0824533,1.74,23.519999,-1.14
-4.39336,-4.2305546,-1.0055647,2.324953,0.62796944,-1.1801916,1.86,23.76,-2.52
-4.3167458,-4.608838,-0.91937345,2.2992969,0.77213365,-1.3732251,1.26,23.76,-3.3
-4.098873,-4.7070007,-1.4628572,2.172237,0.79168135,-1.6566665,0.96,23.699999,-4.62
-4.642357,-5.499481,-1.9321208,1.8472565,0.87109387,-1.9889772,0.78,23.64,-5.64
-5.985504,-6.730101,-1.553837,1.6444492,1.0030408,-2.2162192,-0.35999998,22.92,-6.6
-7.180211,-7.086837,-1.9129672,1.8777997,1.0225884,-2.3310618,-0.29999998,22.98,-7.7999997
-7.8170686,-7.2951326,-3.3327289,2.2589796,0.9969321,-2.4055874,-0.42,23.16,-8.46
-8.018182,-7.539341,-4.0222588,2.4422393,1.1007792,-2.3371704,-0.78,22.8,-9.48
-8.415619,-7.062895,-2.9903579,2.5228734,1.3683381,-2.1783454,-0.96,22.68,-10.38
-9.923966,-5.8083334,-2.2050598,2.3237314,1.4575244,-2.1673498,-1.0799999,22.439999,-11.759999
-11.870452,-6.0525417,-2.861071,1.2767084,0.9272934,-2.4422393,-1.4399999,21.779999,-13.559999
-12.765883,-7.795521,-4.3358994,-0.06841691,0.4569272,-2.8356364,-1.62,21.42,-14.82
-11.496957,-8.6574335,-3.8642416,-0.44226643,0.5656612,-2.8832839,-1.56,21.3,-15.9
-11.6190605,-6.6175733,-1.5346833,0.19425514,1.2449434,-2.7183504,-2.46,20.88,-16.44
-12.229582,-3.9336734,1.5107412,0.5497787,1.5601498,-2.5534167,-3.1799998,20.82,-16.32
-12.002133,-3.833117,1.1563994,0.24190263,1.1801916,-2.4972172,-3.8999999,20.64,-16.38
-10.69011,-5.719748,1.0821792,0.21746802,1.1191051,-2.3054054,-4.56,20.64,-16.5
-10.038888,-0.78050977,3.8905778,1.2596041,1.6395624,-1.8008307,-4.62,20.4,-16.68
-9.040505,2.4468741,4.783615,2.0635028,1.7666223,-0.6585127,-4.3199997,19.92,-17.22
-9.188946,4.024653,2.908955,0.9101892,1.4770721,0.39584067,-3.6599998,19.859999,-17.64
-17.697939,-8.676587,7.4004774,0.40561453,1.1777482,0.8063421,-2.3999999,19.5,-18.359999
-35.98485,-2.0709844,-3.3063924,-0.98837996,3.1300735,3.368311,-0.9,19.619999,-18.9
-3.9743748,-1.043872,-1.2210429,0.03176499,-0.4361578,4.4361033,1.8,19.92,-18.9
-19.56781,-11.5951185,3.3662477,1.1887437,0.80878556,-1.3402383,4.74,20.22,-18.96
-12.143391,-8.552089,1.9009962,0.7086037,0.26389378,-0.21624629,6.12,20.16,-19.5
-12.138602,-6.4499793,0.11252748,0.12217305,-0.13439035,0.9981538,7.9199996,20.1,-20.279999
-7.941567,-7.347805,-0.15322891,0.16982053,-0.90408057,0.86009824,8.4,19.8,-20.88
-11.86327,-6.646304,1.30484,0.47769663,-1.4514158,1.4636332,8.4,19.5,-21.48
-8.868123,-6.4739213,2.3199813,0.4654793,-2.0659463,1.7825048,8.639999,19.08,-22.02
-8.401254,-6.739678,2.846706,0.073303826,-1.9034561,2.9162707,8.7,18.06,-22.02
-7.347805,-5.41329,4.4316673,-0.48502702,-1.210735,3.758043,8.76,17.76,-22.26
-6.95755,-3.7541082,3.5577838,-0.41172317,-0.35918877,3.3426547,8.94,17.279999,-22.619999
-6.9144545,-2.837129,2.791639,-0.1160644,0.118507855,2.6230555,9.96,16.98,-22.859999
-7.920019,-2.8491,1.8267759,-0.17470746,0.15515977,2.2296581,10.26,16.74,-22.8
-8.358158,-3.3159695,1.6903064,-0.029321533,-0.27000242,2.1209242,10.86,16.38,-22.68
-10.129868,-2.195483,1.6304513,0.37384954,-0.6230826,1.9730947,11.639999,15.78,-22.38
-9.464279,-1.721431,2.695871,0.45814893,-1.0323622,1.8692477,12.54,15.599999,-22.02
-9.579201,-1.733402,3.596091,0.26145032,-1.1753048,1.7788396,13.08,15.36,-22.08
-10.089166,-0.8643068,3.1124623,0.22724187,-1.2779301,1.7702875,13.559999,14.58,-22.38
-9.665392,-1.0486604,4.0078936,0.2773328,-1.4355333,1.6676621,13.5,13.98,-22.32
-9.68694,-0.17477672,3.655946,0.19181168,-1.5454891,1.7153096,13.2,13.259999,-22.199999
-10.096349,-0.07182605,3.70383,0.3042109,-1.6798794,1.6371188,13.38,12.84,-22.08
-10.117896,0.4213795,3.9312792,0.35308012,-1.8387043,1.5039502,13.2,12.54,-22.08
-6.8450227,-0.29688102,5.5856724,0.46181414,-1.8790215,1.4709635,12.96,12.24,-22.74
-6.5936313,-0.02873042,5.116409,0.27122417,-1.6261233,1.7153096,12.48,11.639999,-23.1
-8.664616,1.42455,5.085284,0.42638394,-1.5931365,1.926669,11.639999,10.98,-23.4
-5.9543796,4.608838,4.620809,-0.28588495,-1.9193386,1.382999,10.98,10.139999,-23.88
-13.431472,1.6783354,6.447585,-1.6982054,-1.7348573,0.081855945,10.5,9.78,-24.359999
-10.54167,-0.2801216,8.073248,-1.1936307,-2.2675319,1.7067575,9.96,9.9,-24.359999
-7.350199,0.16759412,8.195353,0.059864793,-2.180789,1.5625933,9.66,10.26,-25.019999
-6.157887,1.1707647,8.643068,0.26511553,-1.8961257,1.5858061,8.94,10.98,-25.5
-5.197812,1.6998832,9.212888,-0.06841691,-1.2681563,1.4648548,8.099999,11.28,-25.5
-4.003105,2.0685902,9.55047,-0.05131268,-0.20769419,1.2388347,7.56,11.219999,-25.8
-3.5649664,2.552219,10.232818,0.21135938,0.9773844,1.0946705,7.14,11.46,-25.8
-2.8514943,2.6264393,10.515334,0.5546656,1.3878858,1.0115929,7.68,11.46,-25.619999
-2.6431987,2.731784,8.853758,1.3573426,1.3524556,1.078788,8.46,11.4,-25.5
-3.1651347,3.323152,5.793968,2.284636,1.1801916,1.1239921,9.48,11.219999,-25.68
-3.3614593,3.8546648,3.2992098,2.485,1.1191051,1.1032226,10.0199995,10.26,-25.019999
-3.1028855,3.8833952,1.283292,2.0952678,1.1728612,1.0433578,10.679999,9,-25.019999
-3.3638535,3.9145198,0.39025488,1.4831808,1.2351695,0.816116,11.88,7.98,-25.019999
-4.9464207,3.7948096,0.7493851,0.7733554,1.2730432,0.47647488,12.12,6.48,-24.9
-7.252037,4.072537,2.2098482,0.06841691,1.2082914,0.15760323,12.84,5.2799997,-24.96
-8.62152,5.7628436,3.8666358,-0.36896262,0.9932669,-0.081855945,13.139999,4.56,-24.66
-8.774749,7.393295,4.6112323,-0.43127087,0.6084218,-0.19792034,13.559999,4.02,-24.42
-7.675811,6.7468605,5.7365074,-0.5143485,0.29565877,-0.15271631,13.98,3.78,-23.699999
-7.417237,3.3877954,5.614403,-0.689056,-0.06963864,0.19058995,14.7,4.2,-23.88
-8.271967,1.6879122,5.0038815,-0.70738196,-0.25534168,0.15393804,14.639999,4.3199997,-24.06
-10.795456,2.882619,5.1020436,-0.5143485,-0.14538592,-0.34697145,14.88,5.1,-24.3
-12.531252,6.2584434,5.9759274,-0.2761111,-0.028099801,-0.68783426,14.58,5.4,-25.32
-8.6334915,5.8945246,6.4882865,0.034208454,0.009773844,-0.6218608,14.219999,5.3399997,-25.8
-5.482722,3.2010477,6.3542113,-0.02565634,0.19547687,-0.6621779,14.219999,5.94,-26.099998
-4.6902413,1.7980455,5.6215854,0.095294975,0.40317106,-0.56199604,13.5,5.52,-26.039999
-6.457162,3.1292217,4.5513773,0.44959682,0.516792,-0.47891834,14.099999,6.48,-25.439999
-7.884106,4.8602295,4.414908,0.6597345,0.64751714,-0.46181414,14.099999,7.02,-24.96
-8.020576,3.4620156,4.4675803,0.44104472,0.6365216,-0.26145032,14.099999,6.8999996,-24.6
-8.935161,2.695871,4.2066126,0.037873644,0.5143485,-0.2125811,14.219999,6.7799997,-24.66
-9.3182335,3.4213142,3.9600096,0.23579398,0.45570546,-0.18203785,13.38,6,-24.42
-8.774749,3.976769,3.9217024,0.48380527,0.37507126,-0.16371189,14.219999,5.8199997,-24.539999
-8.267179,3.8259344,3.7660792,0.33841935,0.22113322,-0.17715092,15,6.06,-24.9
-7.7332716,3.643975,3.5649664,0.15515977,0.05375614,-0.15393804,15.179999,6.18,-24.9
-7.4723034,3.679888,3.478775,0.081855945,-0.07574729,-0.13927728,16.08,6.42,-25.08
-7.477092,3.7924154,3.5769374,-0.002443461,-0.20280726,-0.1282817,15.9,6.24,-25.26
-7.85777,3.727772,3.7565024,-0.12339478,-0.33108896,-0.119729586,15.36,5.8799996,-24.539999
-8.255207,3.6487634,3.928885,-0.2125811,-0.46181414,-0.119729586,15.42,6.18,-23.76
-8.240842,3.560178,4.220978,-0.25045475,-0.58276546,-0.12217305,15.179999,6.24,-23.88
-8.080431,3.5458126,4.3263226,-0.28099802,-0.6780604,-0.13316862,14.46,6.24,-23.76
-7.8529816,3.5003228,4.5178585,-0.30909783,-0.73426,-0.1441642,14.759999,6.66,-24.18
-7.5584946,3.4356794,4.781221,-0.32986724,-0.75625116,-0.14660765,13.92,6.06,-24.779999
-7.553706,3.4021606,4.9799395,-0.33841935,-0.74281216,-0.13561209,14.099999,6.2999997,-24.96
-7.57286,3.3303347,5.221754,-0.34208453,-0.7122689,-0.11728613,14.219999,7.02,-24.9
-7.536947,3.1555579,5.48751,-0.32986724,-0.65118235,-0.08552113,13.799999,7.2599998,-24.779999
-7.5944076,3.0693667,5.66947,-0.30176744,-0.56321776,-0.042760566,13.74,8.04,-25.019999
-7.4962454,3.0669725,5.9639564,-0.24556783,-0.45204028,-0.004886922,12.96,8.16,-25.439999
-7.4148426,3.0454245,6.066907,-0.20769419,-0.38973203,0.012217305,12.719999,7.7999997,-25.439999
-7.3645644,3.1747115,6.090849,-0.08674286,-0.20769419,0.052534413,12.059999,7.7999997,-26.039999
-7.3525934,3.1794999,6.0597243,-0.05375614,-0.14538592,0.059864793,11.82,7.56,-26.279999
-7.2472486,3.2225955,5.985504,0.009773844,-0.029321533,0.06719518,11.04,7.68,-25.68
-7.189788,3.3327289,5.9519854,0.062308256,0.07574729,0.057421334,10.679999,7.62,-25.619999
-7.2448545,3.4165258,5.755661,0.11362094,0.15393804,0.043982297,10.86,7.68,-25.439999
-7.381324,3.2609026,5.5521536,0.13194689,0.20647246,0.02565634,10.679999,7.74,-25.439999
-7.374141,3.2800562,5.3582234,0.13072516,0.21135938,0.019547688,11.099999,7.2,-25.68
-7.398083,3.3758245,5.291186,0.1160644,0.1966986,0.008552114,11.46,7.5,-25.68
-7.3909006,3.3997664,5.2289367,0.089186326,0.1685988,0.002443461,11.28,7.14,-25.859999
-7.395689,3.4021606,5.2145715,0.04886922,0.13683382,-0.002443461,11.219999,7.14,-25.74
-7.48188,3.3063924,5.3007627,0.014660766,0.11362094,0.001221731,11.46,7.56,-25.74
-7.608773,3.1531637,5.245696,0.003665192,0.080634214,0,11.16,7.3199997,-25.68
-7.6015906,3.289633,5.3318872,-0.001221731,0.062308256,-0.001221731,11.58,7.62,-25.619999
-7.5944076,3.3159695,5.4085016,-0.006108652,0.058643065,0.001221731,11.639999,7.7999997,-25.199999
-7.5920134,3.2944214,5.439626,-0.009773844,0.061086524,0.002443461,11.94,7.8599997,-24.9
-7.5441294,3.2489316,5.391742,0.017104227,0.073303826,0.006108652,12.179999,7.8599997,-25.26
-7.541735,3.2752678,5.329493,0.039095376,0.087964594,0.004886922,12.059999,7.62,-24.96
-7.553706,3.3327289,5.305551,0.05131268,0.09896017,0.008552114,12.84,7.68,-25.32
-7.606379,3.217807,5.1906295,0.04642576,0.09773844,0.015882496,12.719999,7.56,-25.32
-7.654263,3.3183637,5.207389,0.040317107,0.09162979,0.018325957,13.08,7.8599997,-25.08
-7.642292,3.3686419,5.1259856,0.040317107,0.07819075,0.021991149,12.36,7.44,-25.14
-7.687782,3.3063924,5.1642933,0.04153884,0.059864793,0.02565634,12,7.2599998,-25.32
-7.603985,3.3734303,5.1547165,0.032986723,0.034208454,0.02443461,12.48,7.44,-25.74
-7.539341,3.3925838,5.133168,0.017104227,0.008552114,0.021991149,11.759999,6.7799997,-25.74
-7.615956,3.3662477,5.1523223,0.002443461,-0.017104227,0.015882496,12.059999,7.3199997,-25.74
-7.6111674,3.3423057,5.1259856,-0.008552114,-0.043982297,0.013439035,12.66,7.56,-25.38
-7.603985,3.4500446,5.133168,-0.02321288,-0.06841691,0.008552114,11.88,7.3199997,-25.26
-7.5465236,3.3446999,5.2648497,-0.037873644,-0.0842994,-0.001221731,12.179999,7.9199996,-25.38
-7.505822,3.4332852,5.3007627,-0.04153884,-0.09162979,-0.009773844,12.599999,7.8599997,-25.26
-7.4723034,3.3854012,5.3127337,-0.039095376,-0.095294975,-0.018325957,12.12,7.98,-25.38
-7.48188,3.3758245,5.3079453,-0.042760566,-0.09285152,-0.02076942,12.36,7.98,-25.08
-7.501034,3.3399115,5.391742,-0.043982297,-0.081855945,-0.02565634,12.42,7.98,-24.779999
-7.5225816,3.3518825,5.3965306,-0.037873644,-0.06719518,-0.02687807,12.12,7.98,-25.019999
-7.431602,3.3518825,5.4061074,-0.029321533,-0.047647487,-0.02565634,11.7,7.56,-25.14
-7.455544,3.2752678,5.4180784,-0.018325957,-0.02321288,-0.02565634,12.179999,7.74,-25.56
-7.517793,3.2130187,5.4420204,-0.003665192,-0.002443461,-0.019547688,12.12,7.56,-26.34
-7.5944076,3.2752678,5.398925,0.004886922,0.017104227,-0.013439035,12.78,7.8599997,-26.279999
-7.5106106,3.3207579,5.3821654,0.010995574,0.034208454,-0.004886922,13.259999,8.099999,-25.98
-7.52737,3.3494883,5.3821654,0.02076942,0.04642576,0.003665192,12.66,7.98,-25.68
-7.5944076,3.3207579,5.33907,0.028099801,0.05375614,0.010995574,13.0199995,8.04,-25.08
-7.5082164,3.3518825,5.269638,0.028099801,0.056199603,0.015882496,12.66,7.7999997,-25.08
-7.5465236,3.3638535,5.291186,0.02443461,0.05375614,0.019547688,12.48,7.68,-25.08
-7.6614456,3.3327289,5.2744265,0.019547688,0.04642576,0.02076942,12.48,7.5,-25.38
-7.503428,3.3135753,5.245696,0.02076942,0.040317107,0.02076942,12.599999,7.74,-25.38
-7.5824366,3.347094,5.233725,0.021991149,0.035430185,0.018325957,12.96,7.9199996,-25.38
-7.5824366,3.3662477,5.1906295,0.019547688,0.02565634,0.018325957,12.84,7.9199996,-25.619999
-7.6111674,3.3518825,5.197812,0.010995574,0.013439035,0.015882496,12.9,8.099999,-25.56
-7.5441294,3.3854012,5.2265425,0.001221731,0.003665192,0.009773844,12.9,7.62,-25.56
-7.5106106,3.3686419,5.257667,-0.002443461,-0.006108652,0.004886922,12.36,6.96,-25.56
-7.4866686,3.3518825,5.221754,-0.003665192,-0.015882496,-0.002443461,12.36,6.72,-25.32
-7.5201874,3.466804,5.281609,-0.012217305,-0.021991149,-0.006108652,12.719999,6.7799997,-25.199999
-7.4962454,3.3207579,5.2720323,-0.02076942,-0.02443461,-0.008552114,12,6.96,-25.14
-7.565677,3.4021606,5.3007627,-0.019547688,-0.02565634,-0.009773844,12.179999,7.74,-25.26
-7.560889,3.3063924,5.279215,-0.015882496,-0.02565634,-0.010995574,12.48,7.68,-25.74
-7.620744,3.2992098,5.281609,-0.012217305,-0.02443461,-0.012217305,12.24,7.8599997,-25.68
-7.5201874,3.359065,5.353435,-0.009773844,-0.018325957,-0.013439035,12.54,7.62,-25.98
-7.4962454,3.3854012,5.327099,-0.004886922,-0.013439035,-0.013439035,12.36,7.3799996,-25.74
-7.553706,3.3279405,5.2863975,-0.004886922,-0.010995574,-0.012217305,12,7.74,-25.68
-7.52737,3.3494883,5.3127337,-0.008552114,-0.009773844,-0.010995574,12.179999,7.68,-26.22
-7.513005,3.277662,5.315128,-0.013439035,-0.006108652,-0.008552114,12.179999,7.98,-26.16
-7.6135616,3.3087866,5.3103395,-0.002443461,-0.004886922,-0.007330383,12.42,7.98,-26.16
-7.5345526,3.3063924,5.315128,-0.002443461,-0.001221731,-0.002443461,12.54,7.68,-25.74
-7.565677,3.2680852,5.3103395,-0.002443461,0.003665192,0,11.94,7.3799996,-25.439999
-7.563283,3.301604,5.3342814,-0.003665192,0.006108652,0.002443461,11.7,7.14,-25.74
-7.517793,3.3399115,5.2983685,-0.001221731,0.010995574,0.004886922,11.94,7.3199997,-25.8
-7.4962454,3.301604,5.3582234,0.009773844,0.013439035,0.007330383,12.48,7.68,-26.22
-7.52737,3.3279405,5.2983685,0.013439035,0.015882496,0.008552114,12.96,7.98,-26.22
-7.577648,3.2752678,5.2840033,0.009773844,0.015882496,0.010995574,13.2,8.28,-25.68
-7.5920134,3.3207579,5.2768207,0.004886922,0.013439035,0.010995574,12.9,8.04,-25.56
-7.52737,3.3423057,5.281609,0.006108652,0.014660766,0.012217305,12.12,7.56,-25.14
-7.5201874,3.3446999,5.2648497,0.010995574,0.014660766,0.008552114,12.42,7.44,-25.439999
-7.5106106,3.3638535,5.2624555,0.012217305,0.012217305,0.004886922,12.12,7.2599998,-25.619999
-7.575254,3.335123,5.2720323,0.006108652,0.007330383,0.003665192,12,7.2,-25.8
-7.5944076,3.359065,5.2026005,0,0,0,12.42,7.5,-26.22
-7.560889,3.3662477,5.2624555,-0.006108652,-0.008552114,-0.003665192,12.179999,7.8599997,-25.859999
-7.52737,3.3925838,5.2600613,-0.007330383,-0.012217305,-0.004886922,12.54,7.9199996,-25.92
-7.489063,3.3566709,5.2983685,-0.010995574,-0.017104227,-0.006108652,12.42,7.74,-25.98
-7.524976,3.4021606,5.315128,-0.012217305,-0.02076942,-0.004886922,12.36,7.8599997,-25.74
-7.599196,3.3782187,5.3079453,-0.017104227,-0.017104227,-0.008552114,12.179999,7.68,-25.32
-7.5584946,3.3207579,5.3007627,-0.013439035,-0.014660766,-0.009773844,11.5199995,7.3799996,-25.92
-7.5968018,3.3782187,5.2840033,-0.008552114,-0.012217305,-0.008552114,11.46,7.56,-25.619999
-7.539341,3.3542767,5.317522,-0.007330383,-0.008552114,-0.006108652,11.82,7.74,-25.68
-7.539341,3.3279405,5.3438582,-0.015882496,-0.004886922,-0.004886922,11.82,7.5,-25.859999
-7.539341,3.3542767,5.3007627,-0.006108652,-0.001221731,-0.001221731,12.24,7.8599997,-25.019999
-7.5561004,3.2513258,5.3247046,-0.001221731,0.002443461,0,12.179999,7.56,-25.08
-7.493851,3.2800562,5.33907,0.004886922,0.007330383,0.002443461,11.639999,7.3199997,-25.14
-7.57286,3.301604,5.279215,0.006108652,0.008552114,0.004886922,12.059999,7.74,-25.32
-7.553706,3.3518825,5.3127337,0.004886922,0.008552114,0.006108652,12.599999,7.7999997,-25.439999
-7.5441294,3.3901896,5.2887917,0.004886922,0.007330383,0.006108652,12.96,8.28,-25.56
-7.5201874,3.3207579,5.2863975,0.001221731,0.008552114,0.007330383,13.139999,8.04,-25.56
-7.57286,3.3614593,5.2959743,0.002443461,0.008552114,0.008552114,13.2,7.7999997,-25.619999
-7.524976,3.3423057,5.2720323,0.003665192,0.007330383,0.007330383,12.719999,7.5,-25.14
-7.6111674,3.3423057,5.3103395,0.003665192,0.007330383,0.006108652,12.84,7.56,-24.66
-7.599196,3.301604,5.3103395,0.004886922,0.004886922,0.003665192,12.9,7.74,-24.779999
-7.5321584,3.3566709,5.2648497,0.006108652,0.003665192,0.002443461,12.78,7.8599997,-24.66
-7.5225816,3.2992098,5.267244,-0.001221731,0.003665192,0,13.139999,8.22,-25.56
-7.5106106,3.347094,5.2768207,-0.006108652,0.002443461,0.001221731,12.84,8.099999,-25.74
-7.517793,3.2968156,5.2768207,-0.007330383,0.003665192,-0.001221731,12.179999,8.099999,-25.38
-7.606379,3.2944214,5.2863975,0.003665192,0,0,12.48,8.16,-25.439999
-7.5680714,3.3901896,5.29358,0.006108652,0.006108652,0.003665192,11.82,7.68,-25.619999
-7.548918,3.3135753,5.257667,-0.002443461,0.003665192,0.001221731,12.12,7.68,-26.039999
-7.5944076,3.3494883,5.2768207,-0.002443461,0,0.002443461,13.0199995,7.8599997,-25.98
-7.603985,3.3039982,5.243302,0.001221731,0.002443461,0.003665192,12.3,7.3199997,-25.92
-7.539341,3.4045548,5.2265425,0,0,0.001221731,12.78,7.5,-25.5
-7.501034,3.3423057,5.303157,0.003665192,0,0.001221731,12.66,7.2599998,-25.56
-7.5680714,3.289633,5.2768207,0.003665192,-0.006108652,0.002443461,12.24,7.2,-25.619999
-7.615956,3.3135753,5.2480903,-0.003665192,-0.006108652,0.002443461,12.54,7.5,-25.439999
-7.524976,3.3207579,5.305551,-0.007330383,-0.006108652,0.003665192,12.9,7.98,-25.199999
-7.654263,3.3446999,5.2768207,-0.001221731,-0.007330383,0.002443461,13.32,8.5199995,-24.72
-7.5680714,3.335123,5.33907,0.002443461,-0.006108652,0.001221731,13.38,8.46,-24.66
-7.501034,3.4021606,5.2959743,-0.001221731,-0.003665192,0.001221731,13.32,8.4,-25.199999
-7.503428,3.3997664,5.281609,-0.004886922,-0.003665192,0,12.36,7.8599997,-25.439999
-7.5106106,3.3375173,5.2959743,-0.001221731,0,-0.002443461,11.58,7.14,-25.859999
-7.5321584,3.311181,5.2624555,0.003665192,0,-0.002443461,11.5199995,7.14,-25.98
-7.599196,3.301604,5.2385135,-0.001221731,0.001221731,-0.002443461,11.28,7.14,-26.16
-7.560889,3.311181,5.3007627,-0.003665192,0.002443461,-0.001221731,11.7,7.2599998,-26.039999
-7.565677,3.2800562,5.269638,0,0.001221731,0,11.94,7.5,-25.5
-7.565677,3.311181,5.29358,0.002443461,0.002443461,0.002443461,12.66,7.8599997,-25.26
-7.5345526,3.3542767,5.2528787,0.001221731,0.003665192,0.001221731,12.9,7.9199996,-24.66
-7.563283,3.3303347,5.305551,-0.001221731,0.004886922,0.003665192,12.84,7.7999997,-25.14
-7.5944076,3.3183637,5.317522,0.002443461,0.001221731,0.003665192,12.54,7.68,-25.68
-7.548918,3.3159695,5.279215,0.001221731,-0.001221731,0.002443461,12.179999,7.5,-26.039999
-7.563283,3.3279405,5.279215,0.002443461,0,0.003665192,11.82,7.3199997,-26.58
-7.5321584,3.3494883,5.2744265,0.001221731,0,0.003665192,11.5199995,7.3799996,-26.4
-7.541735,3.3782187,5.2768207,0,-0.001221731,0.006108652,12.059999,7.7999997,-25.8
-7.5465236,3.2632968,5.3127337,-0.003665192,0.001221731,0.004886922,11.7,7.2,-26.099998
-7.539341,3.3375173,5.3366756,0,0.001221731,0.003665192,12.179999,7.5,-25.8
-7.5225816,3.3542767,5.2169657,0.008552114,0.001221731,0.002443461,12.059999,7.56,-25.8
-7.48188,3.2824504,5.3318872,0.006108652,0.001221731,0.002443461,11.82,7.08,-26.22
-7.575254,3.3207579,5.327099,0.001221731,0.002443461,0.002443461,11.88,7.14,-25.859999
-7.5441294,3.335123,5.2887917,0.002443461,0.002443461,0.003665192,11.219999,6.8399997,-25.38
-7.4866686,3.2609026,5.2840033,0.002443461,0.004886922,0.002443461,11.28,6.6,-25.26
-7.539341,3.2704794,5.2361193,0.008552114,0.008552114,0.002443461,11.46,7.2,-25.5
-7.5824366,3.3327289,5.2887917,0.012217305,0.010995574,0.004886922,11.82,7.74,-25.68
-7.565677,3.289633,5.255273,0.008552114,0.010995574,0.006108652,12.719999,8.34,-25.74
-7.606379,3.371036,5.2409077,0.008552114,0.009773844,0.008552114,13.0199995,8.7,-25.98
-7.493851,3.3542767,5.2624555,0.010995574,0.007330383,0.006108652,13.44,8.82,-25.619999
-7.536947,3.347094,5.2385135,0.009773844,0.003665192,0.003665192,12.9,8.5199995,-25.56
-7.477092,3.347094,5.2289367,0.003665192,0,0.002443461,11.759999,7.68,-25.8
-7.5968018,3.3446999,5.315128,-0.001221731,-0.003665192,0.001221731,11.46,7.08,-25.68
-7.5201874,3.311181,5.2480903,-0.003665192,-0.004886922,0,11.099999,7.02,-25.619999
-7.551312,3.3686419,5.329493,-0.001221731,-0.006108652,-0.001221731,11.219999,6.8399997,-25.8
-7.565677,3.3375173,5.3199162,-0.001221731,-0.006108652,-0.003665192,12,7.2,-26.039999
-7.5920134,3.2968156,5.2744265,-0.001221731,-0.006108652,-0.001221731,12.3,7.62,-25.619999
-7.4986396,3.3686419,5.3366756,-0.006108652,-0.004886922,-0.001221731,11.88,7.2599998,-25.68
-7.5441294,3.2728736,5.2648497,-0.001221731,-0.003665192,-0.001221731,11.88,7.44,-25.619999
-7.539341,3.3063924,5.29358,0.002443461,-0.001221731,0.001221731,12,7.8599997,-25.38
-7.5561004,3.3614593,5.255273,0.001221731,0,0.002443461,12.059999,7.9199996,-25.92
-7.536947,3.3782187,5.269638,0.002443461,0.001221731,0.003665192,12.3,7.74,-25.98
-7.6111674,3.3518825,5.221754,0.006108652,0.002443461,0.007330383,12.3,7.56,-25.859999
-7.5225816,3.323152,5.2744265,0.006108652,0.006108652,0.006108652,12.48,7.2599998,-26.16
-7.5920134,3.3087866,5.2624555,0.008552114,0.004886922,0.007330383,12.66,7.5,-26.039999
-7.548918,3.3662477,5.233725,0.004886922,0.002443461,0.007330383,12.179999,7.2,-25.68
-7.515399,3.347094,5.2624555,0.001221731,0,0.006108652,12.179999,7.2599998,-25.68
-7.563283,3.3925838,5.2624555,-0.001221731,-0.002443461,0.004886922,11.639999,7.2,-25.199999
-7.513005,3.2968156,5.3342814,-0.001221731,-0.004886922,0.003665192,11.219999,6.8399997,-24.84
-7.5584946,3.311181,5.29358,0.003665192,-0.006108652,0.002443461,11.46,6.8999996,-25.26
-7.6111674,3.301604,5.233725,-0.001221731,-0.003665192,0.004886922,11.94,7.2,-25.26
-7.541735,3.394978,5.245696,-0.003665192,-0.003665192,0.003665192,12.84,7.2,-25.8
-7.536947,3.3159695,5.279215,0.001221731,-0.001221731,0.003665192,12.719999,7.44,-26.22
-7.529764,3.2585084,5.29358,0.002443461,0.002443461,0,13.38,8.16,-25.98
-7.515399,3.383007,5.2720323,0.007330383,0.002443461,0,13.5,7.9199996,-25.74
-7.5201874,3.3901896,5.2768207,0.003665192,0.002443461,-0.001221731,13.139999,8.04,-25.26
-7.5584946,3.2872388,5.3079453,-0.001221731,0,-0.002443461,13.0199995,7.62,-25.32
-7.5704656,3.323152,5.329493,-0.003665192,-0.003665192,-0.001221731,12.599999,7.2599998,-25.5
-7.513005,3.3303347,5.267244,-0.001221731,-0.006108652,-0.001221731,12.48,7.3799996,-25.619999
-7.551312,3.3638535,5.2744265,-0.001221731,-0.003665192,0.001221731,12.48,7.74,-25.8
-7.5441294,3.301604,5.2648497,0.002443461,-0.004886922,0.004886922,12.78,8.16,-25.5
-7.5944076,3.3207579,5.281609,-0.001221731,-0.003665192,0.006108652,13.0199995,8.28,-25.14
-7.599196,3.4093432,5.303157,0,-0.001221731,0.007330383,13.2,8.5199995,-24.539999
-7.5441294,3.3087866,5.3438582,0.009773844,0.003665192,0.004886922,13.0199995,8.28,-24.96
-7.563283,3.3686419,5.243302,0.010995574,0.006108652,0.003665192,12.78,8.22,-25.199999
-7.5345526,3.4141316,5.2720323,0.010995574,0.002443461,0.001221731,12.719999,8.34,-25.859999
-7.563283,3.4213142,5.2863975,0.003665192,0.001221731,0.003665192,12.599999,8.04,-26.58
-7.5584946,3.3877954,5.2265425,-0.007330383,-0.001221731,-0.001221731,12.36,7.98,-26.46
-7.5465236,3.3686419,5.245696,-0.004886922,-0.006108652,-0.003665192,12.9,7.9199996,-26.58
-7.4986396,3.3638535,5.291186,-0.001221731,-0.007330383,-0.006108652,12.78,7.74,-25.98
-7.5680714,3.3183637,5.243302,-0.003665192,-0.009773844,-0.004886922,12.48,7.62,-26.099998
-7.5584946,3.3806129,5.2863975,-0.010995574,-0.009773844,-0.006108652,12.54,7.56,-25.38
-7.5201874,3.311181,5.2480903,-0.009773844,-0.008552114,-0.004886922,12.48,7.44,-25.439999
-7.599196,3.3446999,5.3103395,-0.003665192,-0.004886922,-0.004886922,12.36,7.3799996,-25.439999
-7.524976,3.3375173,5.3007627,0.001221731,0,-0.002443461,12.599999,7.56,-25.199999
-7.587225,3.3446999,5.281609,-0.002443461,0.001221731,0.002443461,12.719999,7.56,-25.68
-7.548918,3.3686419,5.3103395,0,0.003665192,0.003665192,12.599999,7.68,-25.38
-7.5082164,3.2992098,5.3127337,0.008552114,0.006108652,0.007330383,12.66,7.44,-25.68
-7.5465236,3.3327289,5.2480903,0.003665192,0.008552114,0.008552114,12.599999,7.5,-25.199999
-7.5584946,3.2968156,5.267244,0.006108652,0.006108652,0.007330383,12.84,7.5,-25.56
-7.548918,3.3614593,5.231331,0.003665192,0.003665192,0.006108652,12.84,7.2599998,-25.619999
-7.524976,3.3686419,5.279215,0.001221731,0.001221731,0.003665192,12.719999,7.3799996,-25.32
-7.517793,3.3638535,5.2241483,0,-0.003665192,0.001221731,12.66,7.02,-25.74
-7.553706,3.3854012,5.257667,-0.002443461,-0.004886922,0.001221731,12.36,6.8399997,-25.26
-7.57286,3.3303347,5.269638,-0.003665192,-0.006108652,0,12.12,6.96,-25.439999
-7.6135616,3.3183637,5.269638,-0.004886922,-0.006108652,-0.001221731,12.42,7.3199997,-25.74
-7.6135616,3.406949,5.233725,-0.003665192,-0.002443461,-0.001221731,12.54,7.62,-25.619999
-7.503428,3.3423057,5.3366756,0.001221731,0.002443461,-0.003665192,12.599999,8.04,-26.039999
-7.606379,3.347094,5.279215,0.001221731,0.002443461,-0.006108652,12.54,8.04,-25.859999
-7.6015906,3.3399115,5.3079453,0.006108652,0.001221731,-0.003665192,12.36,7.56,-25.56
-7.61835,3.3638535,5.3007627,0.002443461,0.001221731,-0.003665192,12.36,7.5,-25.859999
-7.491457,3.347094,5.281609,-0.003665192,-0.001221731,0,12.36,7.3199997,-25.32
-7.548918,3.311181,5.279215,0,-0.004886922,0,12.48,7.56,-24.779999
-7.515399,3.2872388,5.3103395,0.001221731,-0.002443461,0.001221731,11.759999,7.62,-24.66
-7.539341,3.3806129,5.2720323,0.003665192,-0.002443461,0.003665192,11.4,7.3799996,-24.779999
-7.6231384,3.347094,5.267244,0.001221731,-0.001221731,0.006108652,11.88,7.3799996,-24.6
-7.5680714,3.3063924,5.2002063,-0.002443461,0.001221731,0.007330383,11.88,7.62,-25.019999
-7.5225816,3.3614593,5.3103395,0.003665192,0.001221731,0.008552114,12.78,8.46,-25.019999
-7.548918,3.3806129,5.363012,0.012217305,0.004886922,0.003665192,13.139999,8.88,-25.38
-7.548918,3.4117374,5.2887917,0.010995574,0.004886922,0.002443461,12.599999,8.76,-25.92
-7.515399,3.4117374,5.2744265,0.003665192,0.003665192,0.001221731,13.139999,8.7,-25.859999
-7.515399,3.3063924,5.2768207,-0.001221731,0,0,12.96,8.34,-25.98
-7.4866686,3.394978,5.2768207,-0.004886922,-0.002443461,0,13.0199995,8.099999,-25.26
-7.5800424,3.3542767,5.2648497,-0.002443461,-0.006108652,-0.002443461,13.38,7.98,-25.56
-7.553706,3.3638535,5.3342814,-0.002443461,-0.004886922,-0.001221731,12.3,7.44,-25.439999
-7.539341,3.3901896,5.3127337,-0.004886922,-0.007330383,-0.002443461,12.059999,6.96,-25.68
-7.489063,3.3518825,5.2744265,-0.003665192,-0.006108652,-0.001221731,12.3,7.02,-25.98
-7.5680714,3.2944214,5.29358,-0.003665192,-0.003665192,-0.003665192,11.639999,6.8999996,-25.26
-7.587225,3.4021606,5.2409077,0.002443461,0,-0.004886922,12.42,7.14,-25.56
-7.560889,3.323152,5.315128,0.004886922,-0.001221731,-0.002443461,13.08,7.7999997,-24.66
-7.548918,3.2393548,5.2600613,-0.001221731,-0.001221731,0,12.719999,7.7999997,-24.96
-7.4986396,3.3087866,5.341464,-0.001221731,0,0.002443461,12.719999,8.04,-24.96
-7.5824366,3.3686419,5.2983685,0.001221731,0,0.004886922,12.719999,8.04,-24.9
-7.548918,3.3662477,5.2768207,0.003665192,0.002443461,0.006108652,11.94,7.62,-25.5
-7.524976,3.3734303,5.315128,0.002443461,0.003665192,0.004886922,12,7.74,-25.08
-7.513005,3.3542767,5.2959743,0.004886922,0.001221731,0.004886922,12.24,7.74,-25.32
-7.5321584,3.311181,5.291186,0.002443461,0.002443461,0.003665192,12.66,7.9199996,-25.38
-7.5584946,3.3566709,5.2528787,0.004886922,0.001221731,0.002443461,12.24,7.44,-24.96
-7.536947,3.2704794,5.279215,0.002443461,-0.001221731,0,12.24,7.2599998,-24.96
-7.517793,3.323152,5.279215,-0.002443461,-0.002443461,0,12.66,7.5,-24.96
-7.5920134,3.4021606,5.2768207,-0.002443461,-0.001221731,0.001221731,12.599999,7.56,-25.14
-7.4962454,3.3494883,5.257667,0.001221731,-0.002443461,0,13.32,8.04,-25.619999
-7.524976,3.3638535,5.303157,-0.001221731,0,0.001221731,13.08,7.7999997,-25.74
-7.505822,3.2680852,5.303157,0.001221731,0.002443461,-0.002443461,12.719999,7.8599997,-25.56
-7.5848308,3.3159695,5.2624555,0.006108652,0.002443461,-0.002443461,12.12,7.56,-25.439999
-7.505822,3.347094,5.2840033,0.002443461,0.002443461,0.001221731,12.36,7.74,-25.08
-7.5920134,3.3446999,5.243302,-0.001221731,0.001221731,-0.001221731,12.66,8.22,-24.779999
-7.5441294,3.4213142,5.269638,0,-0.002443461,0,12.9,8.099999,-25.26
-7.505822,3.3063924,5.255273,-0.001221731,-0.001221731,0,12.719999,8.04,-24.96
-7.5920134,3.3207579,5.2624555,0.003665192,-0.001221731,0.002443461,12.48,7.9199996,-25.08
-7.575254,3.3303347,5.2648497,0.004886922,-0.001221731,0.003665192,12.24,7.56,-25.32
-7.5441294,3.2968156,5.3199162,0.001221731,0,0.006108652,11.88,7.14,-24.9
-7.52737,3.3446999,5.281609,0.002443461,0,0.007330383,12.24,7.3199997,-25.14
-7.5800424,3.3446999,5.2600613,0.010995574,0.006108652,0.004886922,12.54,7.2,-25.56
-7.469909,3.3542767,5.2744265,0.012217305,0.006108652,0.002443461,12.66,7.44,-25.5
-7.541735,3.3614593,5.2002063,0.006108652,0.004886922,0.002443461,12.3,7.56,-25.26
-7.5848308,3.2968156,5.2600613,0,0.003665192,0.003665192,12,7.68,-25.26
-7.539341,3.3638535,5.291186,-0.001221731,-0.001221731,0,11.639999,7.74,-25.26
-7.5704656,3.394978,5.3007627,0.002443461,-0.003665192,0,12,7.5,-25.26
-7.575254,3.394978,5.291186,0.001221731,-0.004886922,-0.001221731,12.12,7.44,-25.32
-7.5680714,3.4237084,5.315128,-0.002443461,-0.006108652,-0.001221731,12.599999,7.44,-25.08
-7.515399,3.3518825,5.2959743,-0.006108652,-0.004886922,-0.002443461,12.66,7.62,-24.96
-7.5465236,3.3782187,5.341464,-0.004886922,-0.003665192,-0.003665192,12.36,7.9199996,-24.779999
-7.501034,3.3255463,5.2840033,0.004886922,-0.002443461,-0.003665192,12.48,8.04,-25.14
-7.536947,3.3446999,5.2528787,0.006108652,-0.001221731,-0.002443461,12,8.28,-25.08
-7.5704656,3.3877954,5.243302,-0.002443461,0,-0.001221731,11.759999,7.9199996,-25.199999
-7.513005,3.2585084,5.329493,-0.002443461,0,0.004886922,12,7.62,-25.74
-7.5920134,3.347094,5.29358,0.003665192,0.002443461,0.003665192,12.36,7.7999997,-25.98
-7.5345526,3.347094,5.3103395,0.010995574,0.006108652,0.006108652,12.36,7.3799996,-26.279999
-7.639898,3.3806129,5.2504845,0.004886922,0.004886922,0.004886922,12.719999,7.56,-26.46
-7.541735,3.3494883,5.2624555,0.001221731,0.003665192,0.003665192,12.719999,8.22,-25.859999
-7.551312,3.3518825,5.2959743,0.006108652,0.003665192,0.002443461,12.719999,8.22,-25.56
-7.536947,3.3279405,5.2768207,0.006108652,0,0.001221731,13.0199995,8.22,-25.619999
-7.5082164,3.3399115,5.233725,0,-0.002443461,0.001221731,12.78,8.34,-25.199999
-7.524976,3.3327289,5.303157,-0.006108652,-0.003665192,0,12.96,8.099999,-25.5
-7.541735,3.2824504,5.329493,-0.001221731,-0.003665192,-0.001221731,12.96,7.98,-25.439999
-7.4986396,3.4021606,5.3199162,0.002443461,-0.002443461,-0.001221731,13.0199995,8.28,-25.199999
-7.5561004,3.347094,5.2887917,0.001221731,0,0,13.259999,8.22,-25.5
-7.5082164,3.3758245,5.281609,0,0.002443461,0,12.78,7.7999997,-25.26
-7.5225816,3.3782187,5.3007627,0.001221731,0.001221731,-0.001221731,12.3,7.7999997,-25.32
-7.524976,3.3207579,5.305551,0.004886922,-0.001221731,0,12.3,7.98,-25.439999
-7.6015906,3.2944214,5.267244,-0.001221731,-0.002443461,-0.001221731,11.82,7.74,-25.5
-7.565677,3.2944214,5.243302,-0.004886922,-0.004886922,-0.001221731,11.82,7.74,-25.38
-7.493851,3.4093432,5.2768207,-0.004886922,-0.004886922,0.001221731,12.599999,7.74,-25.26
-7.5800424,3.3614593,5.33907,-0.004886922,-0.003665192,-0.001221731,12.719999,7.2599998,-25.32
-7.539341,3.3638535,5.317522,0,-0.001221731,0,12.9,7.44,-25.08
-7.529764,3.3207579,5.267244,0,0,0.001221731,12.78,7.62,-25.619999
-7.551312,3.4213142,5.2744265,0.001221731,0.001221731,0.003665192,12.42,7.8599997,-25.32
-7.5800424,3.335123,5.269638,0.003665192,0.004886922,0.003665192,12.42,7.98,-25.439999
-7.539341,3.3638535,5.2648497,0.004886922,0.003665192,0,13.2,8.34,-25.38
-7.577648,3.3566709,5.267244,0.006108652,0.003665192,0,13.679999,8.16,-25.32
-7.4842744,3.3446999,5.233725,0,0.002443461,-0.001221731,13.98,7.8599997,-25.8
-7.503428,3.3087866,5.257667,-0.002443461,0.001221731,0.001221731,13.98,7.8599997,-25.74
-7.5584946,3.3638535,5.2480903,-0.006108652,-0.001221731,0,13.5,7.56,-25.5
-7.548918,3.3566709,5.257667,-0.002443461,-0.003665192,-0.001221731,13.5,8.04,-25.38
-7.5561004,3.3877954,5.2768207,-0.006108652,-0.003665192,-0.001221731,13.08,8.22,-25.619999
-7.529764,3.2992098,5.2504845,-0.006108652,-0.003665192,-0.001221731,12.54,8.04,-26.099998
-7.5561004,3.347094,5.3199162,-0.001221731,-0.001221731,0,12.54,8.099999,-26.039999
-7.5680714,3.3207579,5.3007627,-0.006108652,0.001221731,-0.002443461,12.059999,7.5,-26.34
-7.563283,3.3662477,5.2504845,-0.002443461,0.002443461,-0.001221731,12.3,7.56,-26.34
-7.5704656,3.347094,5.2265425,-0.002443461,0.001221731,0,12.84,7.3799996,-25.38
-7.517793,3.323152,5.303157,-0.003665192,0.002443461,0.001221731,13.0199995,7.2,-25.98
-7.539341,3.3518825,5.3079453,0,0.003665192,0.003665192,13.139999,7.3199997,-25.5
-7.57286,3.3686419,5.3342814,0,0.006108652,0.008552114,13.44,7.44,-25.019999
-7.560889,3.3782187,5.2887917,-0.006108652,0.007330383,0.006108652,13.2,7.62,-25.5
-7.5944076,3.3806129,5.3103395,-0.001221731,0.004886922,0.007330383,13.2,7.7999997,-25.019999
-7.536947,3.3446999,5.279215,0.003665192,0.006108652,0.006108652,13.259999,8.04,-25.199999
-7.52737,3.3399115,5.2624555,0.003665192,0.006108652,0.006108652,12.84,7.5,-25.68
-7.517793,3.3423057,5.2480903,-0.003665192,0.007330383,0.009773844,13.259999,7.9199996,-25.439999
-7.560889,3.4213142,5.3103395,-0.006108652,0.007330383,0.004886922,12.599999,7.9199996,-25.14
-7.606379,3.3734303,5.2289367,0.001221731,0,0.004886922,12.54,7.62,-25.199999
-7.5680714,3.4644098,5.2768207,-0.008552114,0.001221731,0,12.66,8.16,-24.96
-7.501034,3.3518825,5.2648497,-0.008552114,-0.004886922,0,12.059999,7.8599997,-24.96
-7.539341,3.3758245,5.315128,-0.001221731,-0.002443461,0.002443461,12.599999,7.68,-25.14
-7.589619,3.394978,5.2624555,-0.004886922,-0.006108652,0.001221731,12.84,7.8599997,-25.14
-7.563283,3.383007,5.2983685,-0.010995574,-0.007330383,0.001221731,12.9,8.04,-25.08
-7.515399,3.3638535,5.2648497,-0.007330383,-0.003665192,-0.001221731,13.08,7.7999997,-24.9
-7.529764,3.371036,5.33907,0.001221731,0.001221731,-0.002443461,12.66,7.74,-25.56
-7.587225,3.3087866,5.3318872,0.004886922,0.002443461,-0.002443461,12.42,7.68,-25.26
-7.5441294,3.3758245,5.2361193,0,0.002443461,-0.002443461,12.42,7.3199997,-25.56
-7.524976,3.4093432,5.305551,-0.004886922,0.001221731,0,12.12,7.3799996,-25.68
-7.513005,3.3135753,5.3223104,-0.004886922,0.001221731,-0.002443461,12.24,7.74,-25.26
-7.5680714,3.3542767,5.257667,0.004886922,0,0.001221731,12.48,7.62,-25.32
-7.627927,3.3638535,5.315128,-0.002443461,-0.001221731,0.003665192,12.179999,7.9199996,-24.779999
-7.515399,3.3399115,5.2863975,-0.002443461,-0.002443461,0.004886922,12.3,8.04,-24.66
-7.563283,3.3039982,5.3127337,-0.003665192,0.002443461,0.002443461,12.48,7.7999997,-24.779999
-7.5201874,3.4117374,5.2528787,0.006108652,0.003665192,0.001221731,12.3,8.099999,-24.9
-7.505822,3.323152,5.3558292,0.007330383,0.003665192,0,12.48,7.74,-25.14
-7.5345526,3.3542767,5.3079453,-0.003665192,0.001221731,-0.001221731,12.3,7.9199996,-25.439999
-7.5082164,3.3399115,5.2265425,-0.004886922,-0.001221731,-0.001221731,12.12,8.22,-25.14
-7.52737,3.311181,5.2983685,-0.001221731,-0.001221731,0,12.059999,8.04,-24.96
-7.563283,3.2848446,5.33907,-0.002443461,-0.001221731,-0.001221731,11.88,7.74,-25.199999
-7.615956,3.359065,5.2744265,-0.003665192,-0.003665192,-0.001221731,12.3,7.62,-25.56
-7.553706,3.3925838,5.2528787,-0.003665192,-0.002443461,0.001221731,12.78,7.3199997,-25.92
-7.541735,3.3207579,5.2648497,-0.003665192,-0.002443461,-0.001221731,12.3,7.14,-25.98
-7.599196,3.3566709,5.2840033,-0.001221731,-0.002443461,-0.003665192,12.96,7.56,-25.38
-7.548918,3.3614593,5.3342814,0.003665192,-0.002443461,-0.001221731,12.96,7.56,-25.199999
-7.5584946,3.3183637,5.2169657,0,-0.002443461,0,12.66,7.8599997,-25.08
-7.57286,3.2944214,5.2768207,-0.002443461,0,0.001221731,12.84,7.7999997,-25.08
-7.577648,3.3087866,5.29358,0.002443461,0,0.002443461,12.599999,7.98,-25.68
-7.5465236,3.4021606,5.281609,0.004886922,0.003665192,0.001221731,12.42,7.74,-25.68
-7.563283,3.311181,5.269638,0.007330383,0.004886922,0.003665192,12.42,7.3199997,-25.74
-7.553706,3.359065,5.2840033,0.006108652,0.006108652,0.002443461,12.719999,7.3199997,-25.92
-7.515399,3.3997664,5.303157,0.004886922,0.004886922,0.002443461,12.42,6.96,-25.68
-7.4986396,3.3686419,5.257667,0.003665192,0.002443461,0.002443461,12.66,6.8999996,-25.74
-7.513005,3.3183637,5.267244,0.002443461,0.001221731,0.002443461,12.719999,7.2,-25.68
-7.61835,3.4380736,5.243302,0.001221731,-0.001221731,0,12.66,7.44,-25.5
-7.5441294,3.383007,5.353435,0.001221731,-0.003665192,0,12.9,8.04,-25.08
-7.563283,3.3877954,5.315128,-0.001221731,-0.002443461,0,12.9,8.16,-25.14
-7.5584946,3.3542767,5.2600613,0.002443461,-0.001221731,-0.001221731,12.36,7.56,-25.14
-7.5704656,3.3446999,5.2241483,0.007330383,0.001221731,0.001221731,12.78,7.68,-24.9
-7.5345526,3.4021606,5.2528787,0.002443461,0.001221731,0,12.36,7.3799996,-24.84
-7.539341,3.335123,5.2959743,-0.002443461,0.001221731,0,12.3,7.74,-24.48
-7.5800424,3.3494883,5.2720323,0.003665192,0.001221731,-0.001221731,12.78,8.16,-24.84
-7.517793,3.371036,5.2840033,0.004886922,-0.002443461,-0.001221731,12.12,7.9199996,-24.96
-7.477092,3.371036,5.2624555,0,-0.003665192,0,11.94,7.62,-25.56
-7.553706,3.3614593,5.2409077,-0.003665192,-0.003665192,0.001221731,12.12,7.2,-25.74
-7.6015906,3.3925838,5.3318872,-0.003665192,-0.006108652,0,11.759999,7.02,-25.26
-7.4986396,3.2872388,5.2624555,-0.002443461,-0.002443461,0.001221731,12.36,7.3799996,-25.38
-7.5680714,3.3399115,5.243302,0.002443461,-0.001221731,0,12.42,7.2599998,-25.14
-7.551312,3.4261026,5.2480903,0.007330383,-0.001221731,0.004886922,11.7,7.2,-25.019999
-7.551312,3.4141316,5.267244,0.003665192,0.001221731,0.007330383,12.179999,7.68,-25.5
-7.515399,3.371036,5.317522,0.002443461,0.002443461,0.008552114,12,7.44,-25.199999
-7.52737,3.3135753,5.2241483,0.006108652,0.004886922,0.006108652,11.88,7.44,-25.68
-7.4507556,3.4021606,5.2241483,0.010995574,0.004886922,0.006108652,12.36,7.68,-25.38
-7.4866686,3.347094,5.267244,0.006108652,0.003665192,0.004886922,12.24,7.3199997,-24.72
-7.5704656,3.3255463,5.233725,-0.001221731,0,0.003665192,11.94,7.2,-24.96
-7.5680714,3.371036,5.257667,0.003665192,-0.001221731,0,12.42,7.3199997,-24.9
-7.515399,3.4093432,5.2241483,0,-0.001221731,-0.001221731,12.599999,7.2,-25.199999
-7.5848308,3.4404678,5.269638,-0.001221731,-0.004886922,-0.001221731,12.48,7.3799996,-25.199999
-7.6135616,3.4284968,5.2648497,-0.001221731,-0.003665192,0,13.08,7.62,-25.439999
-7.5704656,3.4165258,5.2409077,-0.002443461,-0.004886922,0,12.78,7.3799996,-25.14
-7.57286,3.4045548,5.279215,-0.002443461,-0.004886922,-0.002443461,12.48,7.2,-25.14
-7.5561004,3.442862,5.3127337,0.002443461,-0.001221731,-0.001221731,12.84,7.2,-25.74
-7.524976,3.3806129,5.255273,0.003665192,-0.002443461,-0.002443461,12.54,7.3199997,-25.38
-7.541735,3.406949,5.231331,0.001221731,-0.003665192,0.001221731,12.84,7.7999997,-25.26
-7.529764,3.323152,5.3199162,-0.003665192,-0.002443461,0.002443461,13.2,8.28,-24.84
-7.541735,3.3183637,5.2361193,0,-0.001221731,0.003665192,13.0199995,8.46,-24.539999
-7.4986396,3.4021606,5.231331,0.003665192,-0.001221731,0.003665192,12.96,8.22,-24.66
-7.441179,3.4045548,5.3103395,0.001221731,0,0.002443461,12.719999,8.22,-25.08
-7.517793,3.4045548,5.233725,0.004886922,0.002443461,0.001221731,12.179999,7.7999997,-25.38
-7.5584946,3.3877954,5.2265425,0.003665192,0.001221731,-0.001221731,11.88,7.14,-25.859999
-7.5441294,3.4237084,5.233725,0.001221731,0,-0.001221731,12.059999,7.08,-25.74
-7.541735,3.3901896,5.329493,-0.003665192,-0.002443461,-0.002443461,11.639999,6.42,-25.859999
-7.52737,3.3782187,5.2361193,-0.004886922,-0.003665192,-0.002443461,11.58,6.2999997,-25.92
-7.479486,3.3925838,5.255273,-0.004886922,-0.006108652,-0.003665192,11.82,6.72,-25.38
-7.548918,3.394978,5.33907,-0.004886922,-0.004886922,-0.004886922,11.5199995,6.48,-25.56
-7.57286,3.3303347,5.2959743,-0.003665192,-0.002443461,0,12.48,6.96,-25.14
-7.5704656,3.3566709,5.2361193,-0.001221731,0,-0.001221731,13.139999,7.3799996,-24.72
-7.548918,3.3423057,5.257667,-0.002443461,0.002443461,-0.001221731,12.96,7.44,-24.96
-7.6015906,3.3614593,5.315128,0.002443461,0.004886922,-0.003665192,12.599999,7.44,-25.08
-7.615956,3.3542767,5.2720323,0.007330383,0.003665192,-0.003665192,12.599999,7.3799996,-25.08
-7.548918,3.3782187,5.2983685,0.004886922,0.003665192,0,12.12,7.02,-25.8
-7.560889,3.3638535,5.2887917,-0.002443461,0.001221731,-0.001221731,12.12,6.96,-25.619999
-7.553706,3.371036,5.2504845,-0.003665192,-0.002443461,0.001221731,12.96,7.56,-25.5
-7.4627266,3.4261026,5.2361193,-0.006108652,-0.003665192,0,12.48,7.56,-25.26
-7.5561004,3.3806129,5.231331,-0.003665192,-0.004886922,0,12.719999,7.9199996,-25.019999
-7.5968018,3.430891,5.2768207,0.003665192,-0.007330383,0,12.78,8.099999,-25.439999
-7.5704656,3.3279405,5.2887917,-0.003665192,-0.003665192,-0.001221731,12.24,7.74,-25.56
-7.548918,3.4021606,5.3199162,-0.001221731,-0.001221731,0,12.84,7.9199996,-26.279999
-7.589619,3.3638535,5.303157,0.002443461,0.002443461,-0.002443461,13.139999,8.099999,-26.519999
-7.5321584,3.3159695,5.33907,0.009773844,0.003665192,-0.002443461,13.2,7.8599997,-26.099998
-7.5201874,3.3806129,5.245696,0.006108652,0.002443461,-0.003665192,13.44,8.16,-25.92
-7.52737,3.4213142,5.2504845,0.001221731,0,-0.004886922,13.08,7.8599997,-25.619999
-7.5106106,3.3997664,5.2528787,-0.002443461,-0.002443461,-0.006108652,12.54,7.62,-25.32
-7.5106106,3.3997664,5.221754,0,-0.002443461,-0.015882496,12.719999,7.62,-25.08
-7.503428,3.560178,5.2720323,0.001221731,0,-0.034208454,12.3,7.02,-25.32
-7.3669586,3.5338416,5.118803,-0.007330383,0.006108652,-0.065973446,11.82,7.2599998,-25.32
-7.2568254,3.5577838,5.303157,-0.04886922,0.05009095,-0.112399206,11.94,7.3799996,-25.38
-7.395689,3.7612908,5.547365,-0.05009095,0.103847094,-0.17592919,11.58,7.08,-25.08
-7.6470804,3.5673606,5.422867,-0.014660766,0.12217305,-0.2443461,11.7,7.3799996,-25.08
-7.651869,3.2872388,5.106832,0.006108652,0.1282817,-0.29077184,11.58,6.7799997,-25.08
-7.4244194,3.1483753,5.0134583,-0.002443461,0.13927728,-0.29565877,11.759999,6.66,-25.439999
-7.103596,3.1387985,4.9583917,-0.05009095,0.15271631,-0.29443705,11.58,6.96,-25.859999
-6.7684083,3.169923,5.195418,-0.096516706,0.22479841,-0.2724459,11.7,7.14,-25.68
-6.603208,3.5936968,5.657499,-0.087964594,0.38728857,-0.3200934,12.179999,7.68,-25.98
-7.3525934,3.5242648,5.4204726,0.035430185,0.5338962,-0.42760566,11.639999,7.68,-25.68
-7.7308774,3.0813377,5.0134583,0.14172074,0.6243043,-0.50335294,11.639999,7.5,-25.859999
-8.130709,2.6839,4.5872903,0.22235495,0.6084218,-0.47769663,12.059999,7.3799996,-25.859999
-8.281544,2.6647465,3.8402996,0.18448131,0.4202753,-0.41050145,12.179999,7.3199997,-25.439999
-8.554482,2.456451,3.8187518,0.057421334,0.19303341,-0.2919936,12.599999,7.5,-24.84
-8.6095495,1.9680338,3.6008794,-0.13561209,-0.09285152,-0.25778514,13.62,7.98,-24.539999
-8.12592,2.6623523,4.110844,-0.10751228,-0.24923302,-0.16249016,13.559999,8.099999,-24.18
-8.4826565,2.5498247,4.7070007,-0.10995574,-0.3213151,-0.16249016,13.44,8.28,-24
-8.001422,2.1739352,5.2648497,0.030543262,-0.33475417,-0.036651913,13.32,8.34,-23.76
-7.642292,2.2960393,5.662287,0.16982053,-0.30909783,0.06841691,12.66,8.099999,-23.58
-7.6135616,2.4540567,4.9583917,0.32620203,-0.31520647,0.20280726,12.599999,8.16,-23.76
-8.604761,2.5570073,5.4444146,0.19914207,-0.2761111,0.204029,12.179999,7.7999997,-23.76
-8.128315,2.3511062,5.446809,0.26511553,-0.23335053,0.43493605,12.179999,7.5,-24.6
-8.082825,2.1068976,5.209783,0.3213151,-0.18448131,0.47769663,12.24,7.5,-24.9
-8.317456,2.6001031,5.032612,0.44348818,-0.10995574,0.52656585,11.759999,7.08,-24.9
-8.465898,2.954445,4.7189717,0.50579643,0.013439035,0.52412236,11.5199995,6.6,-24.96
-8.365341,3.0142999,4.7740383,0.46914452,0.07696902,0.5045747,11.5199995,6.18,-24.779999
